Timestamp,Yaw,Pitch,Roll,Qtn[0], Qtn[1], Qtn[2], Qtn[3],Rate X,Rate Y,Rate Z,Accel X,Accel Y,Accel Z,Mag X,Mag Y,Mag Z,Temp,Pres,dTime,dTheta X,dTheta Y,dTheta Z,dVel X,dVel Y,dVel Z,MagNed X,MagNed Y,MagNed Z,AccelNed X,AccelNed Y,AccelNed Z,LinearAccel X,LinearAccel Y,LinearAccel Z,LinearAccelNed X,LinearAccelNed Y,LinearAccelNed Z,Amplitude,Distance,Light 1,Light 2,Light 3,Light 4,Comments
359.566,54.107,15.1144,91.0117,0.587833,0.403702,0.232439,0.661399,-0.00338572,0.0014207,0.00196363,2.58203,-9.45837,0.218513,-0.242412,0.509839,-0.0862585,31.61,99.027,0.024999,-0.00911612,0.0110878,0.00852926,0.0644567,-0.236707,0.00515237,-0.12162,-0.036302,0.556804,0.0568586,-0.00924157,-9.80674,0.0283414,-0.00489287,0.0515744,0.0568586,-0.00924157,-0.0129919,,,,,,,
359.591,54.1121,15.1098,91.0046,0.58779,0.403691,0.23252,0.661416,-0.0071976,0.00898115,0.00218434,2.51727,-9.45323,0.159225,-0.24335,0.512937,-0.0840721,31.61,99.038,0.024999,-0.00995562,0.00941788,0.0106382,0.0639749,-0.236513,0.00475285,-0.119944,-0.0377151,0.559985,-0.0253925,-0.0239265,-9.78388,-0.0356567,0.000477737,-0.00655579,-0.0253925,-0.0239265,0.00986671,,,,,,,
359.617,54.1121,15.1098,91.0046,0.58779,0.403691,0.23252,0.661416,-0.0071976,0.00898115,0.00218434,2.51727,-9.45323,0.159225,-0.24335,0.512937,-0.0840721,31.61,99.038,0.024999,-0.00995562,0.00941788,0.0106382,0.0639749,-0.236513,0.00475285,-0.119944,-0.0377151,0.559985,-0.0253925,-0.0239265,-9.78388,-0.0356567,0.000477737,-0.00655579,-0.0253925,-0.0239265,0.00986671,,,,,,,
359.642,54.1221,15.1059,90.9994,0.587738,0.403713,0.232619,0.661414,-0.00521997,0.00675135,0.00242452,2.51315,-9.44054,0.143292,-0.243389,0.509845,-0.089707,31.61,99.027,0.025,-0.0121176,0.013648,0.0102926,0.0632831,-0.236739,0.0044002,-0.125086,-0.0350693,0.557091,-0.0373913,-0.0151827,-9.7703,-0.0391442,0.0133466,-0.0216351,-0.0373913,-0.0151827,0.0234489,,,,,,,
359.667,54.1221,15.1059,90.9994,0.587738,0.403713,0.232619,0.661414,-0.00521997,0.00675135,0.00242452,2.51315,-9.44054,0.143292,-0.243389,0.509845,-0.089707,31.61,99.027,0.025,-0.0121176,0.013648,0.0102926,0.0632831,-0.236739,0.0044002,-0.125086,-0.0350693,0.557091,-0.0373913,-0.0151827,-9.7703,-0.0391442,0.0133466,-0.0216351,-0.0373913,-0.0151827,0.0234489,,,,,,,
359.693,54.1363,15.0995,90.9887,0.587649,0.403731,0.232776,0.661427,-0.00330579,0.00717987,0.00131552,2.53822,-9.47751,0.130249,-0.24435,0.510897,-0.0886336,31.615,99.027,0.025001,-0.00914234,0.0111894,0.00957243,0.0633677,-0.237015,0.00296262,-0.124695,-0.036271,0.558313,-0.0378281,0.00453274,-9.8123,-0.0130175,-0.023299,-0.0329148,-0.0378281,0.00453274,-0.0185518,,,,,,,
359.718,54.1363,15.0995,90.9887,0.587649,0.403731,0.232776,0.661427,-0.00330579,0.00717987,0.00131552,2.53822,-9.47751,0.130249,-0.24435,0.510897,-0.0886336,31.615,99.027,0.025001,-0.00914234,0.0111894,0.00957243,0.0633677,-0.237015,0.00296262,-0.124695,-0.036271,0.558313,-0.0378281,0.00453274,-9.8123,-0.0130175,-0.023299,-0.0329148,-0.0378281,0.00453274,-0.0185518,,,,,,,
359.743,54.1407,15.0944,90.9815,0.587609,0.403714,0.232857,0.661444,-0.00214769,6.68E-05,0.000796206,2.55703,-9.4889,0.107588,-0.24333,0.514962,-0.0863578,31.61,99.027,0.025001,-0.00398911,-0.000187808,0.0078539,0.0630434,-0.237114,0.00307674,-0.121683,-0.0360113,0.561915,-0.0459167,0.0303214,-9.82783,0.00663242,-0.0344503,-0.0543935,-0.0459167,0.0303214,-0.0340843,,,,,,,
359.768,55.1029,15.217,90.9968,0.583854,0.409278,0.237632,0.65965,-0.262235,0.799207,-0.183173,32.4604,-129.42,4.00513,-0.258215,0.486846,-0.0777541,31.61,99.016,0.025001,-0.21936,0.907724,-0.0954954,0.88763,-3.3152,0.0615465,-0.126064,-0.0596438,0.538785,-0.0843296,-3.18507,-133.451,29.8898,-119.972,3.84073,-0.0843296,-3.18507,-123.657,,,,,,,
359.794,55.1029,15.217,90.9968,0.583854,0.409278,0.237632,0.65965,-0.262235,0.799207,-0.183173,32.4604,-129.42,4.00513,-0.258215,0.486846,-0.0777541,31.61,99.016,0.025001,-0.21936,0.907724,-0.0954954,0.88763,-3.3152,0.0615465,-0.126064,-0.0596438,0.538785,-0.0843296,-3.18507,-133.451,29.8898,-119.972,3.84073,-0.0843296,-3.18507,-123.657,,,,,,,
359.819,56.2772,15.256,91.0521,0.579806,0.41555,0.243952,0.656986,-0.278311,0.946189,-0.0485398,26.554,-106.791,8.27592,-0.274039,0.461796,-0.071495,31.6125,98.937,0.024999,-0.25866,1.14139,-0.0519231,0.840929,-2.83153,0.044538,-0.131539,-0.0835799,0.518822,3.85385,-5.59883,-110.144,23.9769,-97.3442,8.10244,3.85385,-5.59883,-100.351,,,,,,,
359.844,56.2772,15.256,91.0521,0.579806,0.41555,0.243952,0.656986,-0.278311,0.946189,-0.0485398,26.554,-106.791,8.27592,-0.274039,0.461796,-0.071495,31.6125,98.937,0.024999,-0.25866,1.14139,-0.0519231,0.840929,-2.83153,0.044538,-0.131539,-0.0835799,0.518822,3.85385,-5.59883,-110.144,23.9769,-97.3442,8.10244,3.85385,-5.59883,-100.351,,,,,,,
359.869,56.9341,15.0828,90.835,0.576797,0.417541,0.249512,0.656284,-0.274695,0.38708,0.0549284,21.2001,-87.1926,5.01792,-0.391282,0.401025,0.0104687,31.61,99.095,0.024999,-0.402726,0.312721,0.27199,0.670945,-2.24659,0.0891152,-0.135553,-0.238105,0.488839,1.92013,-3.91785,-89.7671,18.6516,-77.7373,4.88011,1.92013,-3.91785,-79.9734,,,,,,,
359.895,59.9059,15.1437,91.0229,0.566613,0.433089,0.265387,0.64881,-0.129117,0.915232,-0.0266349,34.6563,-73.719,2.11057,-0.311194,0.351815,-0.0382438,31.6125,99.016,0.024999,-0.230221,1.51828,-0.0866423,0.536308,-1.94304,0.00474478,-0.132103,-0.164211,0.421499,7.80113,11.8768,-80.2377,32.0977,-64.2669,1.94182,7.80113,11.8768,-70.444,,,,,,,
359.92,59.9059,15.1437,91.0229,0.566613,0.433089,0.265387,0.64881,-0.129117,0.915232,-0.0266349,34.6563,-73.719,2.11057,-0.311194,0.351815,-0.0382438,31.6125,99.016,0.024999,-0.230221,1.51828,-0.0866423,0.536308,-1.94304,0.00474478,-0.132103,-0.164211,0.421499,7.80113,11.8768,-80.2377,32.0977,-64.2669,1.94182,7.80113,11.8768,-70.444,,,,,,,
359.945,60.2944,15.105,90.9847,0.565071,0.43473,0.267951,0.648001,-0.0410778,-0.30723,0.083508,26.001,-73.0583,0.424735,-0.1878,0.352378,-0.104549,31.62,98.896,0.025001,-0.143149,0.37892,0.0395806,0.620562,-1.85488,0.147183,-0.129655,-0.0285305,0.390826,2.28398,5.6801,-77.3063,23.4489,-63.6043,0.262235,2.28398,5.6801,-67.5126,,,,,,,
359.97,60.2944,15.105,90.9847,0.565071,0.43473,0.267951,0.648001,-0.0410778,-0.30723,0.083508,26.001,-73.0583,0.424735,-0.1878,0.352378,-0.104549,31.62,98.896,0.025001,-0.143149,0.37892,0.0395806,0.620562,-1.85488,0.147183,-0.129655,-0.0285305,0.390826,2.28398,5.6801,-77.3063,23.4489,-63.6043,0.262235,2.28398,5.6801,-67.5126,,,,,,,
359.996,58.914,14.9351,91.0565,0.571301,0.427226,0.260839,0.650427,0.297745,-0.622443,0.254421,17.1818,-74.0663,-0.0630514,-0.260695,0.438963,-0.0830514,31.61,98.948,0.025001,0.410364,-1.00104,0.210921,0.654238,-1.73716,-0.0187299,-0.135631,-0.0798133,0.492729,-2.50594,-1.38947,-75.9791,14.6577,-64.605,-0.237526,-2.50594,-1.38947,-66.1854,,,,,,,
360.021,58.914,14.9351,91.0565,0.571301,0.427226,0.260839,0.650427,0.297745,-0.622443,0.254421,17.1818,-74.0663,-0.0630514,-0.260695,0.438963,-0.0830514,31.61,98.948,0.025001,0.410364,-1.00104,0.210921,0.654238,-1.73716,-0.0187299,-0.135631,-0.0798133,0.492729,-2.50594,-1.38947,-75.9791,14.6577,-64.605,-0.237526,-2.50594,-1.38947,-66.1854,,,,,,,
360.046,56.351,14.5369,91.2261,0.583103,0.412732,0.247931,0.65435,0.359619,-0.88858,0.164267,21.6329,-72.9278,-3.70453,-0.263732,0.427839,-0.0808238,31.62,98.918,0.025,0.40406,-1.09881,0.253054,0.525779,-1.83178,0.00788233,-0.14137,-0.0830762,0.481919,-2.90872,5.13061,-75.9302,19.1746,-63.4498,-3.9074,-2.90872,5.13061,-66.1364,,,,,,,
360.071,53.8852,13.9,91.9515,0.598189,0.398369,0.235009,0.654402,0.549106,-0.771513,0.271971,21.0908,-72.5531,-0.49997,-0.262771,0.425827,-0.0716901,31.615,98.846,0.024999,0.726946,-1.13995,0.386595,0.532768,-1.8191,0.00113848,-0.135905,-0.0893128,0.478612,-0.597057,4.22126,-75.4377,18.7381,-63.0516,-0.823714,-0.597057,4.22126,-65.6439,,,,,,,
360.097,53.8852,13.9,91.9515,0.598189,0.398369,0.235009,0.654402,0.549106,-0.771513,0.271971,21.0908,-72.5531,-0.49997,-0.262771,0.425827,-0.0716901,31.615,98.846,0.024999,0.726946,-1.13995,0.386595,0.532768,-1.8191,0.00113848,-0.135905,-0.0893128,0.478612,-0.597057,4.22126,-75.4377,18.7381,-63.0516,-0.823714,-0.597057,4.22126,-65.6439,,,,,,,
360.122,52.8233,13.5107,92.5468,0.606557,0.392036,0.229199,0.652583,0.61925,-0.668278,0.312787,21.0974,-71.5847,0.472817,-0.259756,0.434914,-0.073898,31.61,98.903,0.025001,0.842175,-1.00823,0.436654,0.527919,-1.79823,-0.00255294,-0.134242,-0.0868174,0.48634,0.13877,4.66524,-74.4843,18.8093,-62.0714,0.0496745,0.13877,4.66524,-64.6905,,,,,,,
360.147,52.8233,13.5107,92.5468,0.606557,0.392036,0.229199,0.652583,0.61925,-0.668278,0.312787,21.0974,-71.5847,0.472817,-0.259756,0.434914,-0.073898,31.61,98.903,0.025001,0.842175,-1.00823,0.436654,0.527919,-1.79823,-0.00255294,-0.134242,-0.0868174,0.48634,0.13877,4.66524,-74.4843,18.8093,-62.0714,0.0496745,0.13877,4.66524,-64.6905,,,,,,,
360.172,51.0764,12.6075,94.1028,0.624206,0.381153,0.219442,0.645705,0.719823,-0.498089,0.379492,20.6514,-71.7811,0.49317,-0.255889,0.432792,-0.0714154,31.6175,98.778,0.025,1.00814,-0.762923,0.526471,0.523034,-1.79504,-0.00399071,-0.128322,-0.094806,0.482114,-0.774067,6.43267,-74.4128,18.5137,-62.248,-0.190639,-0.774067,6.43267,-64.6191,,,,,,,
360.198,49.8027,11.5563,95.918,0.641813,0.372267,0.212715,0.635802,0.734376,-0.342148,0.433509,20.9322,-70.885,0.413798,-0.251048,0.431618,-0.0768246,31.6125,98.699,0.024999,1.04243,-0.517459,0.606486,0.521454,-1.77684,0.00289481,-0.12659,-0.100367,0.478667,-1.15378,9.32059,-73.3131,18.9702,-61.3409,-0.575514,-1.15378,9.32059,-63.5194,,,,,,,
360.223,49.8027,11.5563,95.918,0.641813,0.372267,0.212715,0.635802,0.734376,-0.342148,0.433509,20.9322,-70.885,0.413798,-0.251048,0.431618,-0.0768246,31.6125,98.699,0.024999,1.04243,-0.517459,0.606486,0.521454,-1.77684,0.00289481,-0.12659,-0.100367,0.478667,-1.15378,9.32059,-73.3131,18.9702,-61.3409,-0.575514,-1.15378,9.32059,-63.5194,,,,,,,
360.248,48.8584,10.2879,97.8452,0.659207,0.36414,0.209117,0.623794,0.726423,-0.211713,0.519278,20.5939,-71.0663,0.755422,-0.244238,0.433415,-0.0889641,31.61,98.733,0.025,1.04575,-0.343224,0.725189,0.527296,-1.77359,0.00164604,-0.128047,-0.102534,0.478023,-1.6946,11.6668,-73.0487,18.8448,-61.5202,-0.559908,-1.6946,11.6668,-63.255,,,,,,,
360.273,48.8584,10.2879,97.8452,0.659207,0.36414,0.209117,0.623794,0.726423,-0.211713,0.519278,20.5939,-71.0663,0.755422,-0.244238,0.433415,-0.0889641,31.61,98.733,0.025,1.04575,-0.343224,0.725189,0.527296,-1.77359,0.00164604,-0.128047,-0.102534,0.478023,-1.6946,11.6668,-73.0487,18.8448,-61.5202,-0.559908,-1.6946,11.6668,-63.255,,,,,,,
360.299,48.453,9.55158,98.8107,0.667823,0.359911,0.208434,0.617278,0.722354,-0.207717,0.562822,20.405,-70.147,0.819012,-0.240287,0.439413,-0.092226,31.61,98.643,0.025,1.03193,-0.286495,0.793832,0.525741,-1.75805,-0.000638213,-0.125651,-0.105854,0.482011,-1.73251,13.0247,-71.8679,18.7799,-60.603,-0.6603,-1.73251,13.0247,-62.0741,,,,,,,
360.324,48.453,9.55158,98.8107,0.667823,0.359911,0.208434,0.617278,0.722354,-0.207717,0.562822,20.405,-70.147,0.819012,-0.240287,0.439413,-0.092226,31.61,98.643,0.025,1.03193,-0.286495,0.793832,0.525741,-1.75805,-0.000638213,-0.125651,-0.105854,0.482011,-1.73251,13.0247,-71.8679,18.7799,-60.603,-0.6603,-1.73251,13.0247,-62.0741,,,,,,,
360.349,47.4249,8.0406,100.678,0.68511,0.349793,0.206621,0.604629,0.676589,-0.289308,0.594003,19.9308,-69.7236,1.35957,-0.228602,0.442111,-0.102995,31.62,98.624,0.024999,0.998934,-0.406492,0.847093,0.515375,-1.73535,0.000608012,-0.124431,-0.106915,0.481056,-1.6854,15.2856,-70.8801,18.5609,-60.1941,-0.437218,-1.6854,15.2856,-61.0863,,,,,,,
360.374,46.1708,6.54153,102.383,0.701657,0.337941,0.204438,0.593024,0.614958,-0.374594,0.606252,19.9419,-68.8846,0.48226,-0.219832,0.444898,-0.111647,31.61,98.541,0.025,0.903026,-0.503138,0.871076,0.511356,-1.72497,0.001467,-0.124914,-0.110428,0.480549,-1.91321,18.6583,-69.2185,18.8262,-59.3809,-1.60434,-1.91321,18.6583,-59.4248,,,,,,,
360.399,46.1708,6.54153,102.383,0.701657,0.337941,0.204438,0.593024,0.614958,-0.374594,0.606252,19.9419,-68.8846,0.48226,-0.219832,0.444898,-0.111647,31.61,98.541,0.025,0.903026,-0.503138,0.871076,0.511356,-1.72497,0.001467,-0.124914,-0.110428,0.480549,-1.91321,18.6583,-69.2185,18.8262,-59.3809,-1.60434,-1.91321,18.6583,-59.4248,,,,,,,
360.425,44.4865,5.20351,103.884,0.717447,0.32365,0.200033,0.58353,0.549821,-0.524231,0.563508,19.4928,-68.3366,0.76406,-0.210993,0.453805,-0.119225,31.62,98.489,0.025001,0.802222,-0.71305,0.834657,0.496724,-1.70981,0.0153597,-0.124352,-0.112538,0.486358,-1.42555,20.5443,-68.0173,18.6046,-58.8682,-1.57626,-1.42555,20.5443,-58.2235,,,,,,,
360.45,44.4865,5.20351,103.884,0.717447,0.32365,0.200033,0.58353,0.549821,-0.524231,0.563508,19.4928,-68.3366,0.76406,-0.210993,0.453805,-0.119225,31.62,98.489,0.025001,0.802222,-0.71305,0.834657,0.496724,-1.70981,0.0153597,-0.124352,-0.112538,0.486358,-1.42555,20.5443,-68.0173,18.6046,-58.8682,-1.57626,-1.42555,20.5443,-58.2235,,,,,,,
360.475,43.5344,4.65363,104.591,0.724947,0.316213,0.196783,0.579428,0.542568,-0.568999,0.500052,18.8452,-67.5463,0.289196,-0.212972,0.45079,-0.120427,31.6175,98.372,0.025,0.785538,-0.782368,0.773785,0.487174,-1.69957,0.00332336,-0.1285,-0.117971,0.48233,-1.75943,21.4133,-66.7541,18.0506,-58.0997,-2.16981,-1.75943,21.4133,-56.9603,,,,,,,
360.5,43.5344,4.65363,104.591,0.724947,0.316213,0.196783,0.579428,0.542568,-0.568999,0.500052,18.8452,-67.5463,0.289196,-0.212972,0.45079,-0.120427,31.6175,98.372,0.025,0.785538,-0.782368,0.773785,0.487174,-1.69957,0.00332336,-0.1285,-0.117971,0.48233,-1.75943,21.4133,-66.7541,18.0506,-58.0997,-2.16981,-1.75943,21.4133,-56.9603,,,,,,,
360.526,41.3056,4.15137,105.993,0.739097,0.301882,0.185075,0.573019,0.540666,-0.838379,0.273038,18.5198,-66.5591,0.913678,-0.207224,0.443482,-0.124594,31.62,98.308,0.024999,0.781222,-1.10126,0.457233,0.474265,-1.67261,0.00332087,-0.128614,-0.116227,0.474438,-1.14233,22.2388,-65.4069,17.8108,-57.1691,-1.77758,-1.14233,22.2388,-55.6132,,,,,,,
360.551,38.262,4.61325,107.158,0.751787,0.286078,0.163823,0.571084,0.426426,-1.23671,0.0618778,18.6694,-65.2191,0.933088,-0.212023,0.448711,-0.122623,31.6175,98.247,0.025,0.650153,-1.66583,0.147852,0.462065,-1.62677,0.0214254,-0.127161,-0.119655,0.480462,-0.703766,22.8132,-63.8906,17.8817,-55.8915,-1.94676,-0.703766,22.8132,-54.0969,,,,,,,
360.576,38.262,4.61325,107.158,0.751787,0.286078,0.163823,0.571084,0.426426,-1.23671,0.0618778,18.6694,-65.2191,0.933088,-0.212023,0.448711,-0.122623,31.6175,98.247,0.025,0.650153,-1.66583,0.147852,0.462065,-1.62677,0.0214254,-0.127161,-0.119655,0.480462,-0.703766,22.8132,-63.8906,17.8817,-55.8915,-1.94676,-0.703766,22.8132,-54.0969,,,,,,,
360.601,34.4152,5.89007,107.834,0.76202,0.267672,0.13434,0.574134,0.28341,-1.50591,-0.0818371,17.5263,-63.9783,1.49772,-0.222767,0.442945,-0.109508,31.61,98.191,0.024999,0.463855,-2.11207,-0.0680594,0.449959,-1.6041,0.0204384,-0.126515,-0.124752,0.475655,-1.08115,21.2826,-62.8373,16.5213,-54.7044,-1.4859,-1.08115,21.2826,-53.0435,,,,,,,
360.627,34.4152,5.89007,107.834,0.76202,0.267672,0.13434,0.574134,0.28341,-1.50591,-0.0818371,17.5263,-63.9783,1.49772,-0.222767,0.442945,-0.109508,31.61,98.191,0.024999,0.463855,-2.11207,-0.0680594,0.449959,-1.6041,0.0204384,-0.126515,-0.124752,0.475655,-1.08115,21.2826,-62.8373,16.5213,-54.7044,-1.4859,-1.08115,21.2826,-53.0435,,,,,,,
360.652,32.334,6.70488,107.96,0.765922,0.257848,0.118033,0.577015,0.215345,-1.5698,-0.110052,17.3121,-62.9088,1.05164,-0.226585,0.449171,-0.107499,31.61,98.123,0.025001,0.350892,-2.21694,-0.132094,0.445937,-1.57723,0.0190099,-0.125336,-0.122232,0.483738,-1.24801,20.9839,-61.7774,16.1687,-53.656,-1.94764,-1.24801,20.9839,-51.9836,,,,,,,
360.677,27.9901,8.50376,107.788,0.771221,0.237243,0.0839962,0.584704,0.0950945,-1.66117,-0.152038,17.5732,-61.8364,0.389834,-0.241219,0.442536,-0.0855071,31.62,98.048,0.025,0.149634,-2.35289,-0.202313,0.440064,-1.55699,0.0192041,-0.126993,-0.128388,0.478253,-1.04833,20.4152,-60.9495,16.125,-52.6134,-2.56916,-1.04833,20.4152,-51.1557,,,,,,,
360.702,27.9901,8.50376,107.788,0.771221,0.237243,0.0839962,0.584704,0.0950945,-1.66117,-0.152038,17.5732,-61.8364,0.389834,-0.241219,0.442536,-0.0855071,31.62,98.048,0.025,0.149634,-2.35289,-0.202313,0.440064,-1.55699,0.0192041,-0.126993,-0.128388,0.478253,-1.04833,20.4152,-60.9495,16.125,-52.6134,-2.56916,-1.04833,20.4152,-51.1557,,,,,,,
360.728,23.5522,10.3368,107.19,0.773786,0.215929,0.0496551,0.593434,0.0164027,-1.60379,-0.135568,17.7281,-62.2272,0.945002,-0.247996,0.443821,-0.0699994,31.62,97.98,0.025,0.035622,-2.34044,-0.2031,0.435973,-1.54229,0.019381,-0.124812,-0.124541,0.481965,-0.82454,18.7174,-61.9385,15.9708,-53.0228,-1.90244,-0.82454,18.7174,-52.1448,,,,,,,
360.753,23.5522,10.3368,107.19,0.773786,0.215929,0.0496551,0.593434,0.0164027,-1.60379,-0.135568,17.7281,-62.2272,0.945002,-0.247996,0.443821,-0.0699994,31.62,97.98,0.025,0.035622,-2.34044,-0.2031,0.435973,-1.54229,0.019381,-0.124812,-0.124541,0.481965,-0.82454,18.7174,-61.9385,15.9708,-53.0228,-1.90244,-0.82454,18.7174,-52.1448,,,,,,,
360.778,21.4614,11.1645,106.806,0.774269,0.205755,0.0337484,0.597522,0.00308837,-1.49611,-0.130293,16.4006,-61.7841,0.260754,-0.251933,0.43791,-0.0520085,31.61,97.954,0.024999,0.00280432,-2.20437,-0.183485,0.428505,-1.54298,0.0261643,-0.123668,-0.131167,0.474807,-2.14152,18.0843,-61.2756,14.5043,-52.5861,-2.51731,-2.14152,18.0843,-51.4818,,,,,,,
360.804,21.4614,11.1645,106.806,0.774269,0.205755,0.0337484,0.597522,0.00308837,-1.49611,-0.130293,16.4006,-61.7841,0.260754,-0.251933,0.43791,-0.0520085,31.61,97.954,0.024999,0.00280432,-2.20437,-0.183485,0.428505,-1.54298,0.0261643,-0.123668,-0.131167,0.474807,-2.14152,18.0843,-61.2756,14.5043,-52.5861,-2.51731,-2.14152,18.0843,-51.4818,,,,,,,
360.829,17.8111,12.5528,106.054,0.77438,0.187895,0.00625888,0.604145,0.00345661,-1.17535,-0.100569,17.1738,-60.0987,0.870033,-0.260666,0.438218,-0.0377223,31.61,97.886,0.024999,0.00137005,-1.78898,-0.138722,0.420463,-1.51496,0.0352084,-0.126961,-0.130004,0.477896,-0.868708,16.2997,-60.3417,15.0453,-50.9119,-1.77368,-0.868708,16.2997,-50.5479,,,,,,,
360.854,15.0906,13.5312,105.547,0.774503,0.17448,-0.0141081,0.607867,0.0709651,-0.82439,-0.0622358,17.7653,-59.9427,1.40341,-0.26159,0.441396,-0.0219393,31.62,97.777,0.024999,0.0768471,-1.28063,-0.0907744,0.425019,-1.50413,0.0282275,-0.122866,-0.133775,0.480364,-0.28536,15.1634,-60.6687,15.4738,-50.7693,-1.14881,-0.28536,15.1634,-50.875,,,,,,,
360.879,15.0906,13.5312,105.547,0.774503,0.17448,-0.0141081,0.607867,0.0709651,-0.82439,-0.0622358,17.7653,-59.9427,1.40341,-0.26159,0.441396,-0.0219393,31.62,97.777,0.024999,0.0768471,-1.28063,-0.0907744,0.425019,-1.50413,0.0282275,-0.122866,-0.133775,0.480364,-0.28536,15.1634,-60.6687,15.4738,-50.7693,-1.14881,-0.28536,15.1634,-50.875,,,,,,,
360.905,13.3592,14.1576,105.427,0.775506,0.165987,-0.0274534,0.60851,0.141226,-0.449425,-0.0346954,17.3168,-59.0488,0.822338,-0.265553,0.434379,-0.0186675,31.6125,97.682,0.025001,0.164654,-0.754217,-0.063303,0.417147,-1.47643,0.0271821,-0.127153,-0.13046,0.475778,-0.707303,15.1613,-59.6402,14.9214,-49.8947,-1.7037,-0.707303,15.1613,-49.8464,,,,,,,
360.93,13.3592,14.1576,105.427,0.775506,0.165987,-0.0274534,0.60851,0.141226,-0.449425,-0.0346954,17.3168,-59.0488,0.822338,-0.265553,0.434379,-0.0186675,31.6125,97.682,0.025001,0.164654,-0.754217,-0.063303,0.417147,-1.47643,0.0271821,-0.127153,-0.13046,0.475778,-0.707303,15.1613,-59.6402,14.9214,-49.8947,-1.7037,-0.707303,15.1613,-49.8464,,,,,,,
360.955,12.8747,14.3348,105.529,0.776492,0.163585,-0.0313989,0.607713,0.184538,-0.280551,-0.0198133,17.1699,-57.6459,0.4017,-0.265599,0.430311,-0.0174949,31.61,97.637,0.025,0.218902,-0.497903,-0.0379962,0.414356,-1.46329,0.0238231,-0.127745,-0.130087,0.47199,-0.567207,15.3051,-58.1675,14.7451,-48.5035,-2.13879,-0.567207,15.3051,-48.3737,,,,,,,
360.98,12.5739,14.4278,106.105,0.779825,0.161851,-0.0344506,0.603731,0.256093,0.0614592,0.00695949,14.4386,-51.3928,1.03736,-0.266495,0.437448,-0.0210126,31.61,97.547,0.025001,0.353533,-0.0259484,0.0133912,0.374616,-1.32272,0.0160344,-0.126256,-0.131804,0.479071,-1.31605,13.2916,-51.6949,11.9984,-42.2801,-1.59368,-1.31605,13.2916,-41.9012,,,,,,,
361.006,12.5739,14.4278,106.105,0.779825,0.161851,-0.0344506,0.603731,0.256093,0.0614592,0.00695949,14.4386,-51.3928,1.03736,-0.266495,0.437448,-0.0210126,31.61,97.547,0.025001,0.353533,-0.0259484,0.0133912,0.374616,-1.32272,0.0160344,-0.126256,-0.131804,0.479071,-1.31605,13.2916,-51.6949,11.9984,-42.2801,-1.59368,-1.31605,13.2916,-41.9012,,,,,,,
361.031,12.9965,14.2521,107.067,0.784523,0.163568,-0.0323777,0.597262,0.318944,0.225442,0.0238663,11.3808,-39.336,0.979733,-0.263617,0.43429,-0.0253672,31.61,97.434,0.025001,0.442895,0.283657,0.0355466,0.29558,-1.03947,0.0152354,-0.12437,-0.13463,0.474502,-0.727153,10.7194,-39.5269,8.96973,-30.2618,-1.8062,-0.727153,10.7194,-29.7331,,,,,,,
361.056,12.9965,14.2521,107.067,0.784523,0.163568,-0.0323777,0.597262,0.318944,0.225442,0.0238663,11.3808,-39.336,0.979733,-0.263617,0.43429,-0.0253672,31.61,97.434,0.025001,0.442895,0.283657,0.0355466,0.29558,-1.03947,0.0152354,-0.12437,-0.13463,0.474502,-0.727153,10.7194,-39.5269,8.96973,-30.2618,-1.8062,-0.727153,10.7194,-29.7331,,,,,,,
361.082,13.7015,13.8985,108.15,0.789632,0.166366,-0.0278046,0.589941,0.305921,0.274147,0.0607623,8.42036,-30.301,0.596253,-0.261638,0.438265,-0.0343728,31.62,97.381,0.025001,0.448949,0.399952,0.0858575,0.233382,-0.804681,0.00628943,-0.122462,-0.136762,0.477505,-0.923121,8.90741,-30.1532,6.06788,-21.2671,-2.36531,-0.923121,8.90741,-20.3595,,,,,,,
361.107,13.7015,13.8985,108.15,0.789632,0.166366,-0.0278046,0.589941,0.305921,0.274147,0.0607623,8.42036,-30.301,0.596253,-0.261638,0.438265,-0.0343728,31.62,97.381,0.025001,0.448949,0.399952,0.0858575,0.233382,-0.804681,0.00628943,-0.122462,-0.136762,0.477505,-0.923121,8.90741,-30.1532,6.06788,-21.2671,-2.36531,-0.923121,8.90741,-20.3595,,,,,,,
361.132,14.0146,13.7219,108.658,0.792038,0.167537,-0.0256914,0.586471,0.290069,0.21666,0.0459667,7.1595,-25.1659,-0.390702,-0.260667,0.438235,-0.0354566,31.6125,97.287,0.024999,0.429317,0.346191,0.0790581,0.188307,-0.678794,-0.00565149,-0.121705,-0.140253,0.476205,-0.749948,8.4923,-24.7397,4.83634,-16.1517,-3.43445,-0.749948,8.4923,-14.946,,,,,,,
361.157,14.3011,13.4759,109.44,0.79596,0.168152,-0.0236371,0.581046,0.234113,0.0238426,0.0386386,4.75332,-17.1464,-1.40815,-0.263599,0.437254,-0.0412593,31.61,97.242,0.024999,0.333253,0.0980519,0.0723208,0.12434,-0.474964,-0.0194738,-0.125851,-0.14211,0.475757,-0.803784,7.05456,-16.3757,2.47102,-8.16526,-4.57794,-0.803784,7.05456,-6.58194,,,,,,,
361.183,14.3011,13.4759,109.44,0.79596,0.168152,-0.0236371,0.581046,0.234113,0.0238426,0.0386386,4.75332,-17.1464,-1.40815,-0.263599,0.437254,-0.0412593,31.61,97.242,0.024999,0.333253,0.0980519,0.0723208,0.12434,-0.474964,-0.0194738,-0.125851,-0.14211,0.475757,-0.803784,7.05456,-16.3757,2.47102,-8.16526,-4.57794,-0.803784,7.05456,-6.58194,,,,,,,
361.208,13.8444,13.5365,109.908,0.798905,0.165165,-0.0270581,0.577701,0.163889,-0.308899,0.0116056,1.91641,-9.4051,0.402608,-0.261692,0.434135,-0.0433972,31.6125,97.14,0.025,0.264919,-0.34661,0.0464526,0.0674244,-0.270437,-0.00792718,-0.125295,-0.141107,0.472471,-0.907579,2.68488,-9.17923,-0.375963,-0.452443,-2.83969,-0.907579,2.68488,0.614515,,,,,,,
361.233,13.8444,13.5365,109.908,0.798905,0.165165,-0.0270581,0.577701,0.163889,-0.308899,0.0116056,1.91641,-9.4051,0.402608,-0.261692,0.434135,-0.0433972,31.6125,97.14,0.025,0.264919,-0.34661,0.0464526,0.0674244,-0.270437,-0.00792718,-0.125295,-0.141107,0.472471,-0.907579,2.68488,-9.17923,-0.375963,-0.452443,-2.83969,-0.907579,2.68488,0.614515,,,,,,,
361.258,12.5512,14.0081,110.026,0.800651,0.158388,-0.0370936,0.576624,0.12121,-0.590694,-0.01415,0.557935,-2.18682,-0.419428,-0.261724,0.431092,-0.0411014,31.6125,97.099,0.024999,0.198632,-0.767711,-0.00782005,0.0191728,-0.0818129,-0.0226514,-0.12516,-0.13954,0.469991,-0.171481,1.13273,-1.9892,-1.81273,6.74115,-3.67347,-0.171481,1.13273,7.80455,,,,,,,
361.284,11.6333,14.3616,109.965,0.801102,0.153708,-0.0441478,0.576768,0.092793,-0.688801,-0.0190643,-0.0451505,0.295383,-0.204498,-0.263642,0.43319,-0.0389535,31.615,97.088,0.025001,0.161236,-0.955265,-0.0204402,0.000560282,-0.013846,-0.0242848,-0.125565,-0.139486,0.472711,0.023152,0.0980311,0.347798,-2.4744,9.21286,-3.44408,0.023152,0.0980311,10.1415,,,,,,,
361.309,11.6333,14.3616,109.965,0.801102,0.153708,-0.0441478,0.576768,0.092793,-0.688801,-0.0190643,-0.0451505,0.295383,-0.204498,-0.263642,0.43319,-0.0389535,31.615,97.088,0.025001,0.161236,-0.955265,-0.0204402,0.000560282,-0.013846,-0.0242848,-0.125565,-0.139486,0.472711,0.023152,0.0980311,0.347798,-2.4744,9.21286,-3.44408,0.023152,0.0980311,10.1415,,,,,,,
361.334,9.66401,15.2396,109.91,0.802175,0.144224,-0.0602315,0.57627,0.238107,-0.692177,-0.0154402,4.91858,4.08447,-2.7607,-0.264513,0.441429,-0.0288849,31.62,97.076,0.025001,0.311986,-1.03681,-0.152724,0.00690549,0.0652347,-0.0861122,-0.120816,-0.145514,0.479468,5.71478,2.19524,3.31949,2.34422,12.969,-5.97863,5.71478,2.19524,13.1132,,,,,,,
361.36,9.66401,15.2396,109.91,0.802175,0.144224,-0.0602315,0.57627,0.238107,-0.692177,-0.0154402,4.91858,4.08447,-2.7607,-0.264513,0.441429,-0.0288849,31.62,97.076,0.025001,0.311986,-1.03681,-0.152724,0.00690549,0.0652347,-0.0861122,-0.120816,-0.145514,0.479468,5.71478,2.19524,3.31949,2.34422,12.969,-5.97863,5.71478,2.19524,13.1132,,,,,,,
361.385,7.76148,15.7551,110.157,0.805028,0.133248,-0.0737418,0.573357,0.246041,-0.662289,0.0455014,-1.4719,3.26483,-1.95197,-0.266592,0.429247,-0.0288642,31.62,97.031,0.025001,0.355478,-0.948638,0.054629,-0.0214479,0.0794382,-0.0284311,-0.126823,-0.139223,0.469777,-0.493624,0.646634,3.99675,-4.13115,12.1133,-5.20006,-0.493624,0.646634,13.7905,,,,,,,
361.41,7.76148,15.7551,110.157,0.805028,0.133248,-0.0737418,0.573357,0.246041,-0.662289,0.0455014,-1.4719,3.26483,-1.95197,-0.266592,0.429247,-0.0288642,31.62,97.031,0.025001,0.355478,-0.948638,0.054629,-0.0214479,0.0794382,-0.0284311,-0.126823,-0.139223,0.469777,-0.493624,0.646634,3.99675,-4.13115,12.1133,-5.20006,-0.493624,0.646634,13.7905,,,,,,,
361.435,6.80284,16.0331,110.22,0.806074,0.127821,-0.0805842,0.572201,0.205324,-0.662508,0.0486529,-0.765281,3.32918,-1.19218,-0.265598,0.431262,-0.028835,31.6175,97.02,0.025,0.322363,-0.959367,0.0647129,-0.035544,0.0811705,-0.0220256,-0.125302,-0.137812,0.471877,0.243206,-0.00317347,3.60988,-3.47024,12.1619,-4.44552,0.243206,-0.00317347,13.4036,,,,,,,
361.46,4.8964,16.5795,110.252,0.807575,0.117042,-0.0940091,0.570339,0.174097,-0.654645,0.039457,-1.62065,3.1262,-0.931088,-0.267541,0.430366,-0.0164603,31.61,96.971,0.025001,0.264382,-0.933866,0.066225,-0.036938,0.0803272,-0.0273941,-0.127674,-0.144952,0.468777,-0.604325,-0.261116,3.58234,-4.41525,11.9325,-4.18019,-0.604325,-0.261116,13.3761,,,,,,,
361.486,4.8964,16.5795,110.252,0.807575,0.117042,-0.0940091,0.570339,0.174097,-0.654645,0.039457,-1.62065,3.1262,-0.931088,-0.267541,0.430366,-0.0164603,31.61,96.971,0.025001,0.264382,-0.933866,0.066225,-0.036938,0.0803272,-0.0273941,-0.127674,-0.144952,0.468777,-0.604325,-0.261116,3.58234,-4.41525,11.9325,-4.18019,-0.604325,-0.261116,13.3761,,,,,,,
361.511,3.1543,17.0737,110.206,0.808449,0.107218,-0.106134,0.568903,0.162882,-0.566273,0.0381308,-1.43966,3.19359,-1.46502,-0.267504,0.43346,-0.0108251,31.62,96.986,0.024999,0.21597,-0.836245,0.0647355,-0.0353588,0.0789201,-0.0280132,-0.127301,-0.146782,0.47097,-0.362144,0.252271,3.77136,-4.31512,11.9796,-4.69863,-0.362144,0.252271,13.5651,,,,,,,
361.536,3.1543,17.0737,110.206,0.808449,0.107218,-0.106134,0.568903,0.162882,-0.566273,0.0381308,-1.43966,3.19359,-1.46502,-0.267504,0.43346,-0.0108251,31.62,96.986,0.024999,0.21597,-0.836245,0.0647355,-0.0353588,0.0789201,-0.0280132,-0.127301,-0.146782,0.47097,-0.362144,0.252271,3.77136,-4.31512,11.9796,-4.69863,-0.362144,0.252271,13.5651,,,,,,,
361.561,1.60261,17.5484,110.24,0.809451,0.0985621,-0.117221,0.566864,0.191169,-0.543107,0.00175849,-1.60238,2.82011,-0.219992,-0.266584,0.428366,-0.00619423,31.62,96.93,0.024999,0.253541,-0.749842,0.0315066,-0.0372161,0.0767118,-0.0269448,-0.128316,-0.146027,0.465633,-0.685278,-0.788681,3.07854,-4.55531,11.5815,-3.45045,-0.685278,-0.788681,12.8723,,,,,,,
361.587,0.903351,17.7931,110.308,0.810097,0.0947522,-0.122467,0.56548,0.201328,-0.459996,-0.00459986,-1.16034,3.30632,-1.93511,-0.268505,0.430446,-0.00744542,31.62,96.963,0.025001,0.277423,-0.707865,0.00875754,-0.0325737,0.0787886,-0.031569,-0.129251,-0.144468,0.468889,0.0374168,0.667966,3.94655,-4.15312,12.0519,-5.17164,0.0374168,0.667966,13.7403,,,,,,,
361.612,0.903351,17.7931,110.308,0.810097,0.0947522,-0.122467,0.56548,0.201328,-0.459996,-0.00459986,-1.16034,3.30632,-1.93511,-0.268505,0.430446,-0.00744542,31.62,96.963,0.025001,0.277423,-0.707865,0.00875754,-0.0325737,0.0787886,-0.031569,-0.129251,-0.144468,0.468889,0.0374168,0.667966,3.94655,-4.15312,12.0519,-5.17164,0.0374168,0.667966,13.7403,,,,,,,
361.637,-0.30785,18.2975,110.537,0.811616,0.0884061,-0.13218,0.562132,0.231218,-0.43488,-0.0371207,-1.25213,3.12892,-1.36435,-0.267405,0.441666,-0.00184034,31.62,96.907,0.025001,0.31038,-0.61927,-0.0396046,-0.0327006,0.0755344,-0.0229512,-0.124654,-0.15255,0.47725,-0.117692,0.180616,3.62945,-4.32688,11.8365,-4.62638,-0.117692,0.180616,13.4232,,,,,,,
361.662,-0.30785,18.2975,110.537,0.811616,0.0884061,-0.13218,0.562132,0.231218,-0.43488,-0.0371207,-1.25213,3.12892,-1.36435,-0.267405,0.441666,-0.00184034,31.62,96.907,0.025001,0.31038,-0.61927,-0.0396046,-0.0327006,0.0755344,-0.0229512,-0.124654,-0.15255,0.47725,-0.117692,0.180616,3.62945,-4.32688,11.8365,-4.62638,-0.117692,0.180616,13.4232,,,,,,,
361.688,-1.55851,18.899,110.832,0.813315,0.0821364,-0.142769,0.558023,0.237841,-0.444631,-0.0604773,-1.37599,2.76033,-0.622764,-0.270421,0.432574,-0.000765569,31.62,96.873,0.025001,0.349483,-0.663432,-0.0716572,-0.0304285,0.0758274,-0.0302111,-0.128921,-0.149668,0.470348,-0.405172,-0.388718,3.09602,-4.54819,11.4204,-3.91792,-0.405172,-0.388718,12.8898,,,,,,,
361.713,-1.55851,18.899,110.832,0.813315,0.0821364,-0.142769,0.558023,0.237841,-0.444631,-0.0604773,-1.37599,2.76033,-0.622764,-0.270421,0.432574,-0.000765569,31.62,96.873,0.025001,0.349483,-0.663432,-0.0716572,-0.0304285,0.0758274,-0.0302111,-0.128921,-0.149668,0.470348,-0.405172,-0.388718,3.09602,-4.54819,11.4204,-3.91792,-0.405172,-0.388718,12.8898,,,,,,,
361.738,-2.71912,19.5277,111.11,0.814772,0.0766109,-0.15304,0.553946,0.207808,-0.393131,-0.0576999,-1.61231,2.80462,-1.05052,-0.273356,0.430622,0.00137278,31.62,96.828,0.025001,0.315189,-0.597337,-0.0837134,-0.0264537,0.0747297,-0.0291735,-0.130796,-0.150338,0.469522,-0.519376,-0.0054577,3.36143,-4.88598,11.4156,-4.37496,-0.519376,-0.0054577,13.1552,,,,,,,
361.763,-3.19954,19.7683,111.21,0.815306,0.0742352,-0.157126,0.552337,0.174481,-0.337678,-0.0304291,-0.99843,2.88187,-1.29646,-0.270429,0.431567,0.00151039,31.62,96.828,0.024999,0.258364,-0.506887,-0.0536527,-0.028873,0.0727317,-0.0285769,-0.127209,-0.15068,0.469571,0.136789,0.15861,3.30742,-4.31085,11.4741,-4.63094,0.136789,0.15861,13.1012,,,,,,,
361.789,-3.19954,19.7683,111.21,0.815306,0.0742352,-0.157126,0.552337,0.174481,-0.337678,-0.0304291,-0.99843,2.88187,-1.29646,-0.270429,0.431567,0.00151039,31.62,96.828,0.024999,0.258364,-0.506887,-0.0536527,-0.028873,0.0727317,-0.0285769,-0.127209,-0.15068,0.469571,0.136789,0.15861,3.30742,-4.31085,11.4741,-4.63094,0.136789,0.15861,13.1012,,,,,,,
361.814,-4.01342,20.0963,111.342,0.816092,0.0698609,-0.16344,0.54991,0.127957,-0.233393,0.0194854,-0.845696,3.05566,-2.02854,-0.273367,0.429602,0.0013827,31.62,96.794,0.024999,0.18337,-0.371465,0.0104712,-0.0296883,0.0717408,-0.0287015,-0.130148,-0.148889,0.469237,0.490712,0.74487,3.65672,-4.21081,11.6224,-5.37577,0.490712,0.74487,13.4505,,,,,,,
361.839,-4.01342,20.0963,111.342,0.816092,0.0698609,-0.16344,0.54991,0.127957,-0.233393,0.0194854,-0.845696,3.05566,-2.02854,-0.273367,0.429602,0.0013827,31.62,96.794,0.024999,0.18337,-0.371465,0.0104712,-0.0296883,0.0717408,-0.0287015,-0.130148,-0.148889,0.469237,0.490712,0.74487,3.65672,-4.21081,11.6224,-5.37577,0.490712,0.74487,13.4505,,,,,,,
361.864,-4.58345,20.1699,111.409,0.816674,0.0660624,-0.166732,0.548526,0.0775587,-0.150512,0.0686546,-1.06196,2.97502,-1.29305,-0.271417,0.429586,0.0071461,31.62,96.749,0.024999,0.114795,-0.225925,0.0881628,-0.0295435,0.0709955,-0.0260029,-0.130455,-0.153529,0.466554,0.129963,0.107829,3.4091,-4.43889,11.5338,-4.64878,0.129963,0.107829,13.2028,,,,,,,
361.89,-5.03261,20.0983,111.411,0.817008,0.0625085,-0.168376,0.547941,0.0571877,-0.154571,0.0758025,-1.68467,2.58651,-0.788001,-0.269467,0.430515,0.000436512,31.62,96.737,0.024999,0.0689267,-0.174001,0.121226,-0.0287887,0.0695945,-0.0230123,-0.12876,-0.146837,0.468845,-0.671709,-0.152248,3.11042,-5.05011,11.1491,-4.14549,-0.671709,-0.152248,12.9042,,,,,,,
361.915,-5.03261,20.0983,111.411,0.817008,0.0625085,-0.168376,0.547941,0.0571877,-0.154571,0.0758025,-1.68467,2.58651,-0.788001,-0.269467,0.430515,0.000436512,31.62,96.737,0.024999,0.0689267,-0.174001,0.121226,-0.0287887,0.0695945,-0.0230123,-0.12876,-0.146837,0.468845,-0.671709,-0.152248,3.11042,-5.05011,11.1491,-4.14549,-0.671709,-0.152248,12.9042,,,,,,,
361.94,-5.32301,20.1057,111.4,0.817103,0.0604906,-0.169811,0.547583,0.0703347,-0.211268,0.0569237,-0.681701,2.66895,-0.361443,-0.269436,0.432593,0.00721466,31.62,96.726,0.025001,0.085328,-0.254676,0.100088,-0.0241368,0.0705885,-0.0241389,-0.130237,-0.153135,0.468372,0.199143,-0.658606,2.69169,-4.04833,11.2318,-3.71711,0.199143,-0.658606,12.4854,,,,,,,
361.965,-5.32301,20.1057,111.4,0.817103,0.0604906,-0.169811,0.547583,0.0703347,-0.211268,0.0569237,-0.681701,2.66895,-0.361443,-0.269436,0.432593,0.00721466,31.62,96.726,0.025001,0.085328,-0.254676,0.100088,-0.0241368,0.0705885,-0.0241389,-0.130237,-0.153135,0.468372,0.199143,-0.658606,2.69169,-4.04833,11.2318,-3.71711,0.199143,-0.658606,12.4854,,,,,,,
361.991,-6.14026,20.424,111.452,0.817442,0.0561416,-0.175978,0.54559,0.154601,-0.358163,-0.057378,-0.481057,2.88306,-1.41091,-0.270339,0.438753,0.010505,31.62,96.726,0.025,0.198656,-0.475718,-0.0519732,-0.0310299,0.0678468,-0.0267707,-0.129747,-0.157261,0.473426,0.689499,0.186099,3.16608,-3.89872,11.4253,-4.76749,0.689499,0.186099,12.9598,,,,,,,
362.016,-6.14026,20.424,111.452,0.817442,0.0561416,-0.175978,0.54559,0.154601,-0.358163,-0.057378,-0.481057,2.88306,-1.41091,-0.270339,0.438753,0.010505,31.62,96.726,0.025,0.198656,-0.475718,-0.0519732,-0.0310299,0.0678468,-0.0267707,-0.129747,-0.157261,0.473426,0.689499,0.186099,3.16608,-3.89872,11.4253,-4.76749,0.689499,0.186099,12.9598,,,,,,,
362.041,-7.17557,21.1492,111.64,0.818084,0.0520065,-0.18608,0.541671,0.230078,-0.415827,-0.147835,-1.29995,2.75371,-1.82957,-0.269467,0.429572,0.0129095,31.62,96.704,0.025001,0.293373,-0.598204,-0.181907,-0.0295419,0.0687512,-0.0314397,-0.129403,-0.155467,0.465184,0.0404871,0.685436,3.48549,-4.83352,11.244,-5.19796,0.0404871,0.685436,13.2792,,,,,,,
362.066,-7.72348,21.5947,111.788,0.818572,0.0500273,-0.191858,0.539099,0.261047,-0.476778,-0.167565,-0.402611,3.04029,-1.73263,-0.273365,0.428649,0.0127227,31.6125,96.681,0.024999,0.34472,-0.63693,-0.217643,-0.0194253,0.06848,-0.0208518,-0.131404,-0.154662,0.466307,0.957729,0.354877,3.3711,-4.00709,11.4961,-5.1127,0.957729,0.354877,13.1648,,,,,,,
362.092,-7.72348,21.5947,111.788,0.818572,0.0500273,-0.191858,0.539099,0.261047,-0.476778,-0.167565,-0.402611,3.04029,-1.73263,-0.273365,0.428649,0.0127227,31.6125,96.681,0.024999,0.34472,-0.63693,-0.217643,-0.0194253,0.06848,-0.0208518,-0.131404,-0.154662,0.466307,0.957729,0.354877,3.3711,-4.00709,11.4961,-5.1127,0.957729,0.354877,13.1648,,,,,,,
362.117,-9.15515,22.7525,112.037,0.81913,0.0450192,-0.206773,0.533145,0.288633,-0.645439,-0.224398,-0.325898,2.73778,-0.818484,-0.278188,0.431826,0.012447,31.6125,96.62,0.024999,0.404474,-0.888475,-0.304061,-0.0194394,0.0667205,-0.0210356,-0.129834,-0.154873,0.472413,0.746809,-0.392344,2.74953,-4.11365,11.1096,-4.20714,0.746809,-0.392344,12.5433,,,,,,,
362.142,-9.15515,22.7525,112.037,0.81913,0.0450192,-0.206773,0.533145,0.288633,-0.645439,-0.224398,-0.325898,2.73778,-0.818484,-0.278188,0.431826,0.012447,31.6125,96.62,0.024999,0.404474,-0.888475,-0.304061,-0.0194394,0.0667205,-0.0210356,-0.129834,-0.154873,0.472413,0.746809,-0.392344,2.74953,-4.11365,11.1096,-4.20714,0.746809,-0.392344,12.5433,,,,,,,
362.167,-10.9294,24.1821,112.162,0.818862,0.0390816,-0.224993,0.526607,0.288643,-0.738844,-0.246447,-0.443479,2.93512,-1.80719,-0.282179,0.421786,0.0214134,31.62,96.602,0.025,0.415276,-1.0483,-0.353535,-0.0187123,0.068684,-0.0306408,-0.132812,-0.1566,0.464569,1.07768,0.368822,3.28331,-4.45537,11.2094,-5.17747,1.07768,0.368822,13.0771,,,,,,,
362.193,-12.8546,25.6185,112.096,0.817639,0.0324985,-0.243714,0.520589,0.22956,-0.725766,-0.218217,-0.828205,2.34795,-0.161186,-0.2832,0.416762,0.0293448,31.61,96.564,0.024999,0.346033,-1.06026,-0.318063,-0.024341,0.0626257,-0.0186763,-0.13176,-0.15862,0.460687,0.0512879,-0.764426,2.37441,-5.0628,10.5303,-3.48303,0.0512879,-0.764426,12.1682,,,,,,,
362.218,-12.8546,25.6185,112.096,0.817639,0.0324985,-0.243714,0.520589,0.22956,-0.725766,-0.218217,-0.828205,2.34795,-0.161186,-0.2832,0.416762,0.0293448,31.61,96.564,0.024999,0.346033,-1.06026,-0.318063,-0.024341,0.0626257,-0.0186763,-0.13176,-0.15862,0.460687,0.0512879,-0.764426,2.37441,-5.0628,10.5303,-3.48303,0.0512879,-0.764426,12.1682,,,,,,,
362.243,-13.7858,26.2614,111.985,0.816705,0.0292536,-0.252326,0.51814,0.196136,-0.693404,-0.174446,-0.763504,2.65881,-1.35269,-0.285143,0.416825,0.0315125,31.62,96.557,0.025001,0.293078,-1.0155,-0.274148,-0.0229619,0.0644367,-0.0238145,-0.13147,-0.158503,0.462206,0.673804,0.101314,3.00295,-5.09691,10.803,-4.64069,0.673804,0.101314,12.7967,,,,,,,
362.268,-13.7858,26.2614,111.985,0.816705,0.0292536,-0.252326,0.51814,0.196136,-0.693404,-0.174446,-0.763504,2.65881,-1.35269,-0.285143,0.416825,0.0315125,31.62,96.557,0.025001,0.293078,-1.0155,-0.274148,-0.0229619,0.0644367,-0.0238145,-0.13147,-0.158503,0.462206,0.673804,0.101314,3.00295,-5.09691,10.803,-4.64069,0.673804,0.101314,12.7967,,,,,,,
362.294,-15.2818,27.1436,111.732,0.814978,0.0235232,-0.26504,0.514793,0.102764,-0.414966,-0.0704084,-1.72809,2.11521,-0.169948,-0.285127,0.417871,0.0360346,31.62,96.557,0.025001,0.173653,-0.674994,-0.111626,-0.0253401,0.0612744,-0.0204974,-0.129397,-0.159739,0.463629,-0.75579,-0.441736,2.59287,-6.19622,10.2109,-3.39684,-0.75579,-0.441736,12.3866,,,,,,,
362.319,-15.2818,27.1436,111.732,0.814978,0.0235232,-0.26504,0.514793,0.102764,-0.414966,-0.0704084,-1.72809,2.11521,-0.169948,-0.285127,0.417871,0.0360346,31.62,96.557,0.025001,0.173653,-0.674994,-0.111626,-0.0253401,0.0612744,-0.0204974,-0.129397,-0.159739,0.463629,-0.75579,-0.441736,2.59287,-6.19622,10.2109,-3.39684,-0.75579,-0.441736,12.3866,,,,,,,
362.344,-16.0823,27.4392,111.617,0.814308,0.0195629,-0.270617,0.513114,0.0691162,-0.158365,0.0398622,-0.884678,2.21139,-0.956363,-0.285164,0.413842,0.0440052,31.62,96.489,0.025,0.115554,-0.298347,0.0397378,-0.0255726,0.0603563,-0.0309736,-0.133575,-0.162739,0.458469,0.332465,-0.018414,2.54493,-5.39771,10.292,-4.15854,0.332465,-0.018414,12.3387,,,,,,,
362.369,-16.4311,27.2963,111.576,0.814324,0.0164729,-0.271203,0.512888,0.0262577,-0.0269205,0.124106,-0.708256,2.35945,-0.736242,-0.284149,0.41788,0.0417487,31.62,96.478,0.025,0.0401871,-0.0689132,0.164414,-0.0250211,0.057704,-0.0201444,-0.132468,-0.161625,0.461992,0.428753,-0.317245,2.5152,-5.19959,10.4528,-3.93674,0.428753,-0.317245,12.3089,,,,,,,
362.395,-16.4311,27.2963,111.576,0.814324,0.0164729,-0.271203,0.512888,0.0262577,-0.0269205,0.124106,-0.708256,2.35945,-0.736242,-0.284149,0.41788,0.0417487,31.62,96.478,0.025,0.0401871,-0.0689132,0.164414,-0.0250211,0.057704,-0.0201444,-0.132468,-0.161625,0.461992,0.428753,-0.317245,2.5152,-5.19959,10.4528,-3.93674,0.428753,-0.317245,12.3089,,,,,,,
362.42,-16.4901,27.0957,111.572,0.814512,0.0150693,-0.270107,0.513211,0.00699,0.0407626,0.162289,-1.012,2.23145,-0.479128,-0.28511,0.418923,0.0416896,31.62,96.489,0.024999,0.0190051,0.026899,0.213235,-0.0267496,0.0573609,-0.0206469,-0.13465,-0.161203,0.463039,0.012976,-0.394779,2.46517,-5.47283,10.3396,-3.68474,0.012976,-0.394779,12.2589,,,,,,,
362.445,-16.4901,27.0957,111.572,0.814512,0.0150693,-0.270107,0.513211,0.00699,0.0407626,0.162289,-1.012,2.23145,-0.479128,-0.28511,0.418923,0.0416896,31.62,96.489,0.024999,0.0190051,0.026899,0.213235,-0.0267496,0.0573609,-0.0206469,-0.13465,-0.161203,0.463039,0.012976,-0.394779,2.46517,-5.47283,10.3396,-3.68474,0.012976,-0.394779,12.2589,,,,,,,
362.47,-16.482,26.5163,111.588,0.815145,0.0122137,-0.266142,0.514352,0.00475402,0.0828337,0.203109,-1.21034,2.19604,-0.756587,-0.282221,0.416794,0.0384582,31.62,96.478,0.025001,-0.00264396,0.127627,0.292004,-0.0248746,0.0565393,-0.019138,-0.135951,-0.156989,0.460127,-0.0747923,-0.0868084,2.61664,-5.58279,10.3448,-3.9809,-0.0747923,-0.0868084,12.4104,,,,,,,
362.496,-16.5399,25.9859,111.635,0.815859,0.00906045,-0.262801,0.515003,0.0488453,0.0285438,0.166606,-0.972257,2.38176,-2.16944,-0.279253,0.421803,0.0362901,31.62,96.432,0.024999,0.0497367,0.0501923,0.251135,-0.0275586,0.0552401,-0.0222534,-0.135445,-0.157193,0.462776,0.752166,0.964247,3.13512,-5.26338,10.5652,-5.41524,0.752166,0.964247,12.9289,,,,,,,
362.521,-16.5399,25.9859,111.635,0.815859,0.00906045,-0.262801,0.515003,0.0488453,0.0285438,0.166606,-0.972257,2.38176,-2.16944,-0.279253,0.421803,0.0362901,31.62,96.432,0.024999,0.0497367,0.0501923,0.251135,-0.0275586,0.0552401,-0.0222534,-0.135445,-0.157193,0.462776,0.752166,0.964247,3.13512,-5.26338,10.5652,-5.41524,0.752166,0.964247,12.9289,,,,,,,
362.546,-17.0025,25.7677,111.643,0.816121,0.0046646,-0.263395,0.514342,0.0984159,-0.252247,0.0416325,-1.48579,2.20974,-1.3648,-0.274335,0.426791,0.0387524,31.62,96.41,0.025,0.115885,-0.259065,0.133834,-0.0294583,0.0547454,-0.0240071,-0.133844,-0.161346,0.463643,-0.0837971,0.499928,2.94895,-5.74336,10.4078,-4.61781,-0.0837971,0.499928,12.7427,,,,,,,
362.571,-17.0025,25.7677,111.643,0.816121,0.0046646,-0.263395,0.514342,0.0984159,-0.252247,0.0416325,-1.48579,2.20974,-1.3648,-0.274335,0.426791,0.0387524,31.62,96.41,0.025,0.115885,-0.259065,0.133834,-0.0294583,0.0547454,-0.0240071,-0.133844,-0.161346,0.463643,-0.0837971,0.499928,2.94895,-5.74336,10.4078,-4.61781,-0.0837971,0.499928,12.7427,,,,,,,
362.596,-17.4969,25.9461,111.596,0.815768,0.00213844,-0.266822,0.51315,0.135926,-0.428764,-0.0346932,-0.730759,2.1933,-0.778432,-0.277273,0.424825,0.0386247,31.62,96.353,0.025001,0.16534,-0.477495,0.00555174,-0.0211915,0.0551139,-0.0262463,-0.136704,-0.158509,0.463719,0.318732,-0.188016,2.41114,-5.01577,10.3817,-4.01982,0.318732,-0.188016,12.2049,,,,,,,
362.622,-17.4969,25.9461,111.596,0.815768,0.00213844,-0.266822,0.51315,0.135926,-0.428764,-0.0346932,-0.730759,2.1933,-0.778432,-0.277273,0.424825,0.0386247,31.62,96.353,0.025001,0.16534,-0.477495,0.00555174,-0.0211915,0.0551139,-0.0262463,-0.136704,-0.158509,0.463719,0.318732,-0.188016,2.41114,-5.01577,10.3817,-4.01982,0.318732,-0.188016,12.2049,,,,,,,
362.647,-19.497,27.0389,111.198,0.813021,-0.00566696,-0.283118,0.508733,0.183159,-0.95243,-0.197505,-0.8412,2.02735,-0.460998,-0.277265,0.424881,0.0476889,31.62,96.376,0.025001,0.262753,-1.23588,-0.232432,-0.0214433,0.0524973,-0.0197266,-0.136551,-0.161799,0.463518,0.0739159,-0.347891,2.21446,-5.29339,10.1604,-3.61527,0.0739159,-0.347891,12.0082,,,,,,,
362.672,-22.6719,28.8801,110.266,0.807082,-0.0164053,-0.309428,0.502597,0.189536,-1.22665,-0.273006,-0.733386,1.96816,-0.156162,-0.278284,0.419879,0.0590195,31.62,96.365,0.025,0.280608,-1.7331,-0.390173,-0.0249983,0.0496458,-0.0184188,-0.135818,-0.160883,0.461404,0.0480674,-0.600136,2.01827,-5.46355,10.013,-3.12661,0.0480674,-0.600136,11.812,,,,,,,
362.703,-22.6719,28.8801,110.266,0.807082,-0.0164053,-0.309428,0.502597,0.189536,-1.22665,-0.273006,-0.733386,1.96816,-0.156162,-0.278284,0.419879,0.0590195,31.62,96.365,0.025,0.280608,-1.7331,-0.390173,-0.0249983,0.0496458,-0.0184188,-0.135818,-0.160883,0.461404,0.0480674,-0.600136,2.01827,-5.46355,10.013,-3.12661,0.0480674,-0.600136,11.812,,,,,,,
362.728,-24.3526,29.8041,109.678,0.803503,-0.02187,-0.322893,0.499645,0.155828,-1.15948,-0.237541,-0.432649,2.441,-1.11911,-0.279258,0.418937,0.0680443,31.6125,96.361,0.024999,0.232,-1.69057,-0.360608,-0.0190678,0.0521291,-0.0157209,-0.137103,-0.163118,0.461215,0.964967,-0.182329,2.53647,-5.30049,10.443,-3.98075,0.964967,-0.182329,12.3302,,,,,,,
362.754,-24.3526,29.8041,109.678,0.803503,-0.02187,-0.322893,0.499645,0.155828,-1.15948,-0.237541,-0.432649,2.441,-1.11911,-0.279258,0.418937,0.0680443,31.6125,96.361,0.024999,0.232,-1.69057,-0.360608,-0.0190678,0.0521291,-0.0157209,-0.137103,-0.163118,0.461215,0.964967,-0.182329,2.53647,-5.30049,10.443,-3.98075,0.964967,-0.182329,12.3302,,,,,,,
362.779,-27.3276,31.2487,108.549,0.796847,-0.0318745,-0.345295,0.494762,0.121983,-0.866428,-0.145048,-1.23503,1.9663,-0.860305,-0.279296,0.414908,0.0760149,31.6125,96.331,0.024999,0.183095,-1.33792,-0.224623,-0.0207991,0.0502578,-0.0184542,-0.135668,-0.159582,0.4605,0.134494,0.144487,2.46836,-6.31558,9.90426,-3.52384,0.134494,0.144487,12.2621,,,,,,,
362.804,-29.3819,32.1131,107.773,0.792296,-0.0391948,-0.359776,0.491215,0.0900027,-0.533116,-0.0487817,-0.725364,2.0037,-0.872386,-0.279264,0.417016,0.0873253,31.62,96.285,0.024999,0.138152,-0.846119,-0.0949922,-0.0150368,0.050089,-0.0201732,-0.137761,-0.163947,0.462234,0.579356,-0.0747189,2.22729,-5.93164,9.90312,-3.40445,0.579356,-0.0747189,12.021,,,,,,,
362.83,-29.3819,32.1131,107.773,0.792296,-0.0391948,-0.359776,0.491215,0.0900027,-0.533116,-0.0487817,-0.725364,2.0037,-0.872386,-0.279264,0.417016,0.0873253,31.62,96.285,0.024999,0.138152,-0.846119,-0.0949922,-0.0150368,0.050089,-0.0201732,-0.137761,-0.163947,0.462234,0.579356,-0.0747189,2.22729,-5.93164,9.90312,-3.40445,0.579356,-0.0747189,12.021,,,,,,,
362.855,-30.8933,32.5397,107.195,0.789011,-0.0455287,-0.369079,0.489049,0.0698946,-0.397351,0.0178657,-1.27431,1.63159,-0.064025,-0.277347,0.413973,0.097651,31.62,96.297,0.024999,0.107773,-0.627286,0.0201037,-0.0192432,0.0471495,-0.0147248,-0.142159,-0.16627,0.458232,-0.409943,-0.245544,2.01537,-6.54221,9.51887,-2.50486,-0.409943,-0.245544,11.8091,,,,,,,
362.88,-30.8933,32.5397,107.195,0.789011,-0.0455287,-0.369079,0.489049,0.0698946,-0.397351,0.0178657,-1.27431,1.63159,-0.064025,-0.277347,0.413973,0.097651,31.62,96.297,0.024999,0.107773,-0.627286,0.0201037,-0.0192432,0.0471495,-0.0147248,-0.142159,-0.16627,0.458232,-0.409943,-0.245544,2.01537,-6.54221,9.51887,-2.50486,-0.409943,-0.245544,11.8091,,,,,,,
362.905,-31.4844,32.6492,106.991,0.787835,-0.0483507,-0.372352,0.488193,0.0905811,-0.326769,0.0358369,-1.11368,1.86148,-1.23156,-0.274397,0.416958,0.0977687,31.62,96.274,0.025,0.110434,-0.506329,0.0491144,-0.0227497,0.0458767,-0.0173643,-0.13918,-0.167281,0.459731,0.515982,0.427264,2.40278,-6.39735,9.74778,-3.64126,0.515982,0.427264,12.1965,,,,,,,
362.931,-32.2365,32.6439,106.826,0.786804,-0.0530077,-0.375591,0.48689,0.078027,-0.1231,0.0917937,-1.01042,1.82959,-1.36327,-0.272409,0.420986,0.0978275,31.62,96.24,0.025001,0.114254,-0.235586,0.123816,-0.0220594,0.0446102,-0.0165943,-0.138033,-0.167724,0.462409,0.672995,0.4922,2.35195,-6.29332,9.72326,-3.75039,0.672995,0.4922,12.1457,,,,,,,
362.956,-32.2365,32.6439,106.826,0.786804,-0.0530077,-0.375591,0.48689,0.078027,-0.1231,0.0917937,-1.01042,1.82959,-1.36327,-0.272409,0.420986,0.0978275,31.62,96.24,0.025001,0.114254,-0.235586,0.123816,-0.0220594,0.0446102,-0.0165943,-0.138033,-0.167724,0.462409,0.672995,0.4922,2.35195,-6.29332,9.72326,-3.75039,0.672995,0.4922,12.1457,,,,,,,
362.981,-32.4275,32.2848,106.887,0.787149,-0.0564375,-0.374199,0.487017,0.0584142,0.0335913,0.16547,-0.671048,1.75932,-0.0919083,-0.26954,0.41683,0.0968817,31.625,96.236,0.025,0.0720475,0.0357512,0.234526,-0.0125466,0.045978,-0.00717266,-0.139845,-0.164439,0.457371,0.0652764,-0.542749,1.8042,-5.90217,9.68196,-2.49705,0.0652764,-0.542749,11.5979,,,,,,,
363.007,-32.4275,32.2848,106.887,0.787149,-0.0564375,-0.374199,0.487017,0.0584142,0.0335913,0.16547,-0.671048,1.75932,-0.0919083,-0.26954,0.41683,0.0968817,31.625,96.236,0.025,0.0720475,0.0357512,0.234526,-0.0125466,0.045978,-0.00717266,-0.139845,-0.164439,0.457371,0.0652764,-0.542749,1.8042,-5.90217,9.68196,-2.49705,0.0652764,-0.542749,11.5979,,,,,,,
363.032,-32.3556,31.8069,107.209,0.788776,-0.0595348,-0.370826,0.486597,0.125007,0.0904866,0.130816,-0.92945,1.66942,-0.29809,-0.267564,0.419832,0.0958173,31.62,96.218,0.025,0.154657,0.128157,0.211955,-0.02242,0.0422144,-0.0106072,-0.141604,-0.165676,0.457745,-0.0299098,-0.228646,1.92003,-6.09133,9.61984,-2.76047,-0.0299098,-0.228646,11.7138,,,,,,,
363.057,-32.3556,31.8069,107.209,0.788776,-0.0595348,-0.370826,0.486597,0.125007,0.0904866,0.130816,-0.92945,1.66942,-0.29809,-0.267564,0.419832,0.0958173,31.62,96.218,0.025,0.154657,0.128157,0.211955,-0.02242,0.0422144,-0.0106072,-0.141604,-0.165676,0.457745,-0.0299098,-0.228646,1.92003,-6.09133,9.61984,-2.76047,-0.0299098,-0.228646,11.7138,,,,,,,
363.082,-32.2412,31.6173,107.48,0.790076,-0.0606311,-0.369041,0.485707,0.162693,0.110017,0.0924246,-1.31949,1.49483,-0.468502,-0.269432,0.426995,0.0922506,31.62,96.229,0.025,0.208298,0.151323,0.159395,-0.024248,0.0416015,-0.0131839,-0.141125,-0.16666,0.464474,-0.256916,0.159506,2.02574,-6.4538,9.44972,-2.97368,-0.256916,0.159506,11.8195,,,,,,,
363.108,-32.1178,31.4118,108.11,0.792899,-0.0628876,-0.36692,0.482416,0.219265,0.0165604,0.025697,-0.488421,1.74107,-0.830308,-0.269448,0.425957,0.0888615,31.6125,96.191,0.024999,0.296203,0.0530335,0.0638793,-0.0225165,0.0389899,-0.00868391,-0.143546,-0.165945,0.46238,0.623196,-0.0984201,1.88712,-5.59278,9.68541,-3.42847,0.623196,-0.0984201,11.6809,,,,,,,
363.133,-32.1178,31.4118,108.11,0.792899,-0.0628876,-0.36692,0.482416,0.219265,0.0165604,0.025697,-0.488421,1.74107,-0.830308,-0.269448,0.425957,0.0888615,31.6125,96.191,0.024999,0.296203,0.0530335,0.0638793,-0.0225165,0.0389899,-0.00868391,-0.143546,-0.165945,0.46238,0.623196,-0.0984201,1.88712,-5.59278,9.68541,-3.42847,0.623196,-0.0984201,11.6809,,,,,,,
363.158,-32.2665,31.4649,108.698,0.795254,-0.0655238,-0.367541,0.477694,0.256374,-0.125279,-0.0369945,-0.629286,1.52696,-0.314555,-0.266558,0.423825,0.0856297,31.62,96.172,0.024999,0.342818,-0.114062,-0.0203596,-0.0178361,0.0400574,-0.00978739,-0.143016,-0.166314,0.458147,0.126754,-0.306577,1.64818,-5.74139,9.43973,-2.99261,0.126754,-0.306577,11.4419,,,,,,,
363.183,-32.2665,31.4649,108.698,0.795254,-0.0655238,-0.367541,0.477694,0.256374,-0.125279,-0.0369945,-0.629286,1.52696,-0.314555,-0.266558,0.423825,0.0856297,31.62,96.172,0.024999,0.342818,-0.114062,-0.0203596,-0.0178361,0.0400574,-0.00978739,-0.143016,-0.166314,0.458147,0.126754,-0.306577,1.64818,-5.74139,9.43973,-2.99261,0.126754,-0.306577,11.4419,,,,,,,
363.209,-32.9726,31.9093,109.127,0.796394,-0.0694883,-0.372952,0.470994,0.285926,-0.342591,-0.115662,-0.408578,1.62051,-0.115901,-0.269431,0.427961,0.0831764,31.62,96.127,0.025,0.40278,-0.430668,-0.135707,-0.0150211,0.0407185,-0.0116016,-0.143748,-0.167566,0.462515,0.175417,-0.616187,1.54789,-5.58531,9.47534,-2.83997,0.175417,-0.616187,11.3416,,,,,,,
363.234,-33.551,32.2976,109.241,0.796314,-0.0718563,-0.377636,0.467023,0.295922,-0.450335,-0.15862,-0.463459,1.68804,-0.447945,-0.268514,0.422847,0.0844081,31.62,96.105,0.025,0.4186,-0.588421,-0.198334,-0.0169242,0.0396621,-0.0112358,-0.144827,-0.166785,0.457419,0.375232,-0.408867,1.71958,-5.69643,9.5041,-3.17609,0.375232,-0.408867,11.5133,,,,,,,
363.259,-33.551,32.2976,109.241,0.796314,-0.0718563,-0.377636,0.467023,0.295922,-0.450335,-0.15862,-0.463459,1.68804,-0.447945,-0.268514,0.422847,0.0844081,31.62,96.105,0.025,0.4186,-0.588421,-0.198334,-0.0169242,0.0396621,-0.0112358,-0.144827,-0.166785,0.457419,0.375232,-0.408867,1.71958,-5.69643,9.5041,-3.17609,0.375232,-0.408867,11.5133,,,,,,,
363.284,-35.1008,33.3026,109.236,0.794792,-0.0773474,-0.390029,0.458476,0.284148,-0.642905,-0.185523,-0.404774,1.57731,-0.23118,-0.269494,0.421881,0.0889013,31.62,96.037,0.025001,0.407554,-0.8427,-0.257919,-0.0119405,0.0405495,-0.0167674,-0.146689,-0.169384,0.456404,0.25312,-0.54627,1.53059,-5.78213,9.30577,-2.92792,0.25312,-0.54627,11.3243,,,,,,,
363.31,-35.1008,33.3026,109.236,0.794792,-0.0773474,-0.390029,0.458476,0.284148,-0.642905,-0.185523,-0.404774,1.57731,-0.23118,-0.269494,0.421881,0.0889013,31.62,96.037,0.025001,0.407554,-0.8427,-0.257919,-0.0119405,0.0405495,-0.0167674,-0.146689,-0.169384,0.456404,0.25312,-0.54627,1.53059,-5.78213,9.30577,-2.92792,0.25312,-0.54627,11.3243,,,,,,,
363.335,-37.4345,34.5407,108.637,0.790197,-0.0848987,-0.407129,0.450141,0.210316,-0.888436,-0.190966,-0.588085,1.54962,-0.620973,-0.268545,0.41981,0.0878372,31.62,96.014,0.025,0.324104,-1.20634,-0.265319,-0.0116379,0.0398063,-0.0146105,-0.141333,-0.165583,0.456815,0.422425,-0.206002,1.70642,-6.14106,9.19392,-3.19906,0.422425,-0.206002,11.5002,,,,,,,
363.36,-37.4345,34.5407,108.637,0.790197,-0.0848987,-0.407129,0.450141,0.210316,-0.888436,-0.190966,-0.588085,1.54962,-0.620973,-0.268545,0.41981,0.0878372,31.62,96.014,0.025,0.324104,-1.20634,-0.265319,-0.0116379,0.0398063,-0.0146105,-0.141333,-0.165583,0.456815,0.422425,-0.206002,1.70642,-6.14106,9.19392,-3.19906,0.422425,-0.206002,11.5002,,,,,,,
363.386,-40.6379,35.9583,107.263,0.781799,-0.0943111,-0.428935,0.442617,0.132744,-1.10421,-0.179877,-0.561469,1.71766,-0.804871,-0.270485,0.41895,0.105878,31.62,96.003,0.025001,0.205474,-1.54167,-0.258502,-0.0134468,0.0399015,-0.0137057,-0.148694,-0.169462,0.457236,0.661049,-0.22619,1.85075,-6.31232,9.28805,-3.15742,0.661049,-0.22619,11.6445,,,,,,,
363.411,-42.4604,36.6478,106.34,0.776507,-0.0994786,-0.440625,0.439307,0.101941,-1.13328,-0.156295,-0.870049,1.51447,-0.881104,-0.267588,0.416867,0.110577,31.62,95.98,0.024999,0.15237,-1.6034,-0.227932,-0.0146598,0.0393639,-0.0131739,-0.146737,-0.168527,0.455715,0.517298,0.0951991,1.88422,-6.71587,9.05482,-3.09172,0.517298,0.0951991,11.678,,,,,,,
363.436,-42.4604,36.6478,106.34,0.776507,-0.0994786,-0.440625,0.439307,0.101941,-1.13328,-0.156295,-0.870049,1.51447,-0.881104,-0.267588,0.416867,0.110577,31.62,95.98,0.024999,0.15237,-1.6034,-0.227932,-0.0146598,0.0393639,-0.0131739,-0.146737,-0.168527,0.455715,0.517298,0.0951991,1.88422,-6.71587,9.05482,-3.09172,0.517298,0.0951991,11.678,,,,,,,
363.462,-46.1685,37.7988,104.314,0.765213,-0.110129,-0.462883,0.43366,0.0626238,-1.06086,-0.0821595,-0.787352,1.61226,-0.856924,-0.262625,0.424995,0.126607,31.635,95.98,0.024999,0.091323,-1.55041,-0.127866,-0.0147531,0.039645,-0.015967,-0.146505,-0.176256,0.461619,0.633578,-0.0365822,1.88437,-6.78985,9.11072,-2.7702,0.633578,-0.0365822,11.6781,,,,,,,
363.487,-46.1685,37.7988,104.314,0.765213,-0.110129,-0.462883,0.43366,0.0626238,-1.06086,-0.0821595,-0.787352,1.61226,-0.856924,-0.262625,0.424995,0.126607,31.635,95.98,0.024999,0.091323,-1.55041,-0.127866,-0.0147531,0.039645,-0.015967,-0.146505,-0.176256,0.461619,0.633578,-0.0365822,1.88437,-6.78985,9.11072,-2.7702,0.633578,-0.0365822,11.6781,,,,,,,
363.512,-49.5535,38.5341,102.32,0.754318,-0.120252,-0.481462,0.429811,0.0191805,-0.891935,-0.00306125,-0.84784,1.36077,0.0141941,-0.259796,0.415852,0.143839,31.625,95.992,0.025,0.0383713,-1.32134,-0.015546,-0.0142683,0.0381061,-0.0135712,-0.154516,-0.172138,0.455642,-0.125706,-0.321491,1.56575,-6.94915,8.84536,-1.62051,-0.125706,-0.321491,11.3595,,,,,,,
363.537,-51.0558,38.7543,101.41,0.749341,-0.125009,-0.489166,0.42846,0.0142473,-0.79498,0.0284493,-0.662377,1.39798,-0.126121,-0.253912,0.420775,0.139552,31.62,95.992,0.025,0.0246175,-1.19158,0.0333346,-0.0169385,0.0372872,-0.0113035,-0.144171,-0.171673,0.459065,0.105378,-0.373703,1.50275,-6.79308,8.88457,-1.63707,0.105378,-0.373703,11.2965,,,,,,,
363.563,-51.0558,38.7543,101.41,0.749341,-0.125009,-0.489166,0.42846,0.0142473,-0.79498,0.0284493,-0.662377,1.39798,-0.126121,-0.253912,0.420775,0.139552,31.62,95.992,0.025,0.0246175,-1.19158,0.0333346,-0.0169385,0.0372872,-0.0113035,-0.144171,-0.171673,0.459065,0.105378,-0.373703,1.50275,-6.79308,8.88457,-1.63707,0.105378,-0.373703,11.2965,,,,,,,
363.588,-53.5598,38.9576,99.9067,0.740968,-0.133636,-0.501196,0.42651,0.0339429,-0.588981,0.0697575,-0.934486,1.28583,-0.388747,-0.250918,0.426885,0.150971,31.62,95.947,0.025001,0.0404647,-0.907724,0.101906,-0.0183676,0.0355751,-0.0123246,-0.147272,-0.17456,0.464566,0.196509,0.00613426,1.62453,-7.09226,8.788,-1.69899,0.196509,0.00613426,11.4183,,,,,,,
363.613,-53.5598,38.9576,99.9067,0.740968,-0.133636,-0.501196,0.42651,0.0339429,-0.588981,0.0697575,-0.934486,1.28583,-0.388747,-0.250918,0.426885,0.150971,31.62,95.947,0.025001,0.0404647,-0.907724,0.101906,-0.0183676,0.0355751,-0.0123246,-0.147272,-0.17456,0.464566,0.196509,0.00613426,1.62453,-7.09226,8.788,-1.69899,0.196509,0.00613426,11.4183,,,,,,,
363.638,-55.4169,38.9596,98.8882,0.734958,-0.141094,-0.509325,0.424872,0.0631091,-0.425105,0.0884105,-0.432398,1.51254,-0.654572,-0.244144,0.423699,0.158144,31.62,95.935,0.025001,0.0783474,-0.653548,0.130349,-0.0166169,0.0355902,-0.00843992,-0.149611,-0.173597,0.460019,0.718618,-0.314704,1.51253,-6.59043,9.0366,-1.83122,0.718618,-0.314704,11.3063,,,,,,,
363.664,-55.4169,38.9596,98.8882,0.734958,-0.141094,-0.509325,0.424872,0.0631091,-0.425105,0.0884105,-0.432398,1.51254,-0.654572,-0.244144,0.423699,0.158144,31.62,95.935,0.025001,0.0783474,-0.653548,0.130349,-0.0166169,0.0355902,-0.00843992,-0.149611,-0.173597,0.460019,0.718618,-0.314704,1.51253,-6.59043,9.0366,-1.83122,0.718618,-0.314704,11.3063,,,,,,,
363.689,-56.8087,38.8857,98.2748,0.730893,-0.147681,-0.514906,0.422915,0.111443,-0.32034,0.0750119,-0.90538,1.29145,-0.415747,-0.240255,0.423617,0.160607,31.62,95.913,0.025,0.144253,-0.489143,0.120974,-0.0182635,0.0336483,-0.00896729,-0.150281,-0.171966,0.459142,0.262715,0.0104094,1.60975,-7.05359,8.83553,-1.51293,0.262715,0.0104094,11.4035,,,,,,,
363.714,-57.3491,38.8419,98.1082,0.729547,-0.150628,-0.516915,0.421747,0.125745,-0.267382,0.0707475,-0.730967,1.30027,-0.0505881,-0.238285,0.425627,0.164084,31.62,95.913,0.024999,0.169195,-0.40825,0.110886,-0.0176666,0.0336232,-0.00879788,-0.152701,-0.174054,0.459618,0.0185786,-0.27609,1.46663,-6.87334,8.85217,-1.12649,0.0185786,-0.27609,11.2604,,,,,,,
363.739,-57.3491,38.8419,98.1082,0.729547,-0.150628,-0.516915,0.421747,0.125745,-0.267382,0.0707475,-0.730967,1.30027,-0.0505881,-0.238285,0.425627,0.164084,31.62,95.913,0.024999,0.169195,-0.40825,0.110886,-0.0176666,0.0336232,-0.00879788,-0.152701,-0.174054,0.459618,0.0185786,-0.27609,1.46663,-6.87334,8.85217,-1.12649,0.0185786,-0.27609,11.2604,,,,,,,
363.765,-58.2831,38.7815,97.9577,0.727703,-0.156235,-0.520269,0.41876,0.170396,-0.220467,0.0438047,-0.44257,1.37104,-0.551597,-0.235341,0.427618,0.168743,31.62,95.867,0.025,0.230038,-0.339227,0.0775903,-0.0166117,0.0335477,-0.0103887,-0.157207,-0.176119,0.459331,0.594127,-0.283272,1.39522,-6.5769,8.93214,-1.60855,0.594127,-0.283272,11.189,,,,,,,
363.79,-58.2831,38.7815,97.9577,0.727703,-0.156235,-0.520269,0.41876,0.170396,-0.220467,0.0438047,-0.44257,1.37104,-0.551597,-0.235341,0.427618,0.168743,31.62,95.867,0.025,0.230038,-0.339227,0.0775903,-0.0166117,0.0335477,-0.0103887,-0.157207,-0.176119,0.459331,0.594127,-0.283272,1.39522,-6.5769,8.93214,-1.60855,0.594127,-0.283272,11.189,,,,,,,
363.815,-59.1336,38.7897,97.9824,0.726619,-0.161698,-0.523364,0.414691,0.215523,-0.229383,0.0173584,-0.720588,1.33962,-0.673933,-0.234376,0.427561,0.163128,31.6175,95.867,0.024999,0.291537,-0.330724,0.0389119,-0.0137651,0.0331517,-0.00995985,-0.154551,-0.172036,0.459204,0.5815,-0.0346356,1.55842,-6.85601,8.8994,-1.73403,0.5815,-0.0346356,11.3522,,,,,,,
363.84,-59.9957,38.8976,98.0954,0.725873,-0.167056,-0.526783,0.409514,0.24431,-0.241888,-0.0214007,-0.502255,1.37693,-0.671245,-0.228594,0.423312,0.158931,31.62,95.822,0.024999,0.333838,-0.338692,-0.0138081,-0.0139098,0.0320792,-0.00924892,-0.152278,-0.170152,0.452291,0.66985,-0.218825,1.44989,-6.65205,8.92315,-1.74461,0.66985,-0.218825,11.2436,,,,,,,
363.866,-59.9957,38.8976,98.0954,0.725873,-0.167056,-0.526783,0.409514,0.24431,-0.241888,-0.0214007,-0.502255,1.37693,-0.671245,-0.228594,0.423312,0.158931,31.62,95.822,0.024999,0.333838,-0.338692,-0.0138081,-0.0139098,0.0320792,-0.00924892,-0.152278,-0.170152,0.452291,0.66985,-0.218825,1.44989,-6.65205,8.92315,-1.74461,0.66985,-0.218825,11.2436,,,,,,,
363.891,-60.4732,38.9996,98.1626,0.725492,-0.169801,-0.528834,0.406403,0.26497,-0.277625,-0.0425429,-0.727865,1.26117,-0.612148,-0.228544,0.427406,0.162289,31.62,95.834,0.025001,0.364054,-0.379985,-0.0407725,-0.0151644,0.0316344,-0.0106995,-0.156048,-0.173584,0.454713,0.506807,-0.0286155,1.49579,-6.89121,8.79528,-1.69281,0.506807,-0.0286155,11.2895,,,,,,,
363.916,-60.4732,38.9996,98.1626,0.725492,-0.169801,-0.528834,0.406403,0.26497,-0.277625,-0.0425429,-0.727865,1.26117,-0.612148,-0.228544,0.427406,0.162289,31.62,95.834,0.025001,0.364054,-0.379985,-0.0407725,-0.0151644,0.0316344,-0.0106995,-0.156048,-0.173584,0.454713,0.506807,-0.0286155,1.49579,-6.89121,8.79528,-1.69281,0.506807,-0.0286155,11.2895,,,,,,,
363.941,-61.6074,39.3071,98.2245,0.724256,-0.175492,-0.534076,0.399273,0.280022,-0.354872,-0.0799502,-0.525908,1.26346,-0.345847,-0.227461,0.43756,0.159973,31.62,95.811,0.025001,0.390702,-0.478301,-0.0941609,-0.0132873,0.0312455,-0.00992774,-0.154482,-0.178802,0.46147,0.340191,-0.289627,1.33899,-6.73002,8.76355,-1.4299,0.340191,-0.289627,11.1327,,,,,,,
363.967,-61.6074,39.3071,98.2245,0.724256,-0.175492,-0.534076,0.399273,0.280022,-0.354872,-0.0799502,-0.525908,1.26346,-0.345847,-0.227461,0.43756,0.159973,31.62,95.811,0.025001,0.390702,-0.478301,-0.0941609,-0.0132873,0.0312455,-0.00992774,-0.154482,-0.178802,0.46147,0.340191,-0.289627,1.33899,-6.73002,8.76355,-1.4299,0.340191,-0.289627,11.1327,,,,,,,
363.992,-63.0327,39.7531,98.1271,0.72209,-0.181462,-0.541065,0.391031,0.285108,-0.437162,-0.119528,-0.864062,1.12105,-0.360648,-0.226443,0.441627,0.162248,31.62,95.777,0.025001,0.399791,-0.595573,-0.147153,-0.0115826,0.0314576,-0.00782927,-0.157614,-0.182092,0.463287,0.212326,0.0205198,1.44496,-7.12698,8.57493,-1.42509,0.212326,0.0205198,11.2387,,,,,,,
364.017,-64.7712,40.3464,97.8396,0.718875,-0.187608,-0.549888,0.381634,0.296549,-0.524868,-0.156333,-0.211704,1.27593,-0.442981,-0.225585,0.431412,0.162397,31.62,95.754,0.025001,0.417223,-0.726274,-0.206019,-0.0101745,0.030951,-0.00955249,-0.160225,-0.175449,0.454888,0.536244,-0.516827,1.14646,-6.55224,8.67041,-1.46111,0.536244,-0.516827,10.9402,,,,,,,
364.042,-64.7712,40.3464,97.8396,0.718875,-0.187608,-0.549888,0.381634,0.296549,-0.524868,-0.156333,-0.211704,1.27593,-0.442981,-0.225585,0.431412,0.162397,31.62,95.754,0.025001,0.417223,-0.726274,-0.206019,-0.0101745,0.030951,-0.00955249,-0.160225,-0.175449,0.454888,0.536244,-0.516827,1.14646,-6.55224,8.67041,-1.46111,0.536244,-0.516827,10.9402,,,,,,,
364.067,-65.7662,40.6883,97.6177,0.716836,-0.190801,-0.554955,0.376518,0.299332,-0.577615,-0.172387,-0.213021,1.24839,-0.547756,-0.226555,0.43145,0.164614,31.62,95.721,0.024999,0.421276,-0.793389,-0.229268,-0.0121775,0.0296326,-0.0113368,-0.162854,-0.175054,0.455422,0.628421,-0.476564,1.1322,-6.59798,8.60914,-1.5322,0.628421,-0.476564,10.9259,,,,,,,
364.093,-65.7662,40.6883,97.6177,0.716836,-0.190801,-0.554955,0.376518,0.299332,-0.577615,-0.172387,-0.213021,1.24839,-0.547756,-0.226555,0.43145,0.164614,31.62,95.721,0.024999,0.421276,-0.793389,-0.229268,-0.0121775,0.0296326,-0.0113368,-0.162854,-0.175054,0.455422,0.628421,-0.476564,1.1322,-6.59798,8.60914,-1.5322,0.628421,-0.476564,10.9259,,,,,,,
364.118,-68.0487,41.4216,96.9364,0.71154,-0.19746,-0.566439,0.365879,0.274941,-0.658588,-0.174606,-0.130292,1.25579,-0.253498,-0.225548,0.434483,0.164633,31.62,95.709,0.024999,0.396521,-0.922946,-0.247989,-0.0110445,0.0293681,-0.00825514,-0.16172,-0.176299,0.45773,0.37209,-0.655741,1.04393,-6.60978,8.546,-1.14041,0.37209,-0.655741,10.8377,,,,,,,
364.143,-70.4927,42.0785,96.0217,0.705149,-0.204198,-0.578255,0.355936,0.234421,-0.662151,-0.144299,-0.452706,1.14931,-0.452299,-0.222622,0.435422,0.163638,31.62,95.709,0.025,0.338467,-0.941213,-0.204691,-0.0108714,0.0292579,-0.00713933,-0.158567,-0.176529,0.457847,0.464525,-0.325298,1.18694,-7.01597,8.37839,-1.21487,0.464525,-0.325298,10.9807,,,,,,,
364.168,-70.4927,42.0785,96.0217,0.705149,-0.204198,-0.578255,0.355936,0.234421,-0.662151,-0.144299,-0.452706,1.14931,-0.452299,-0.222622,0.435422,0.163638,31.62,95.709,0.025,0.338467,-0.941213,-0.204691,-0.0108714,0.0292579,-0.00713933,-0.158567,-0.176529,0.457847,0.464525,-0.325298,1.18694,-7.01597,8.37839,-1.21487,0.464525,-0.325298,10.9807,,,,,,,
364.194,-71.8046,42.3734,95.4855,0.701514,-0.20782,-0.584352,0.35103,0.243288,-0.717141,-0.137895,-0.704304,1.04531,-0.773121,-0.221676,0.432395,0.172781,31.62,95.687,0.025,0.342274,-0.993891,-0.188001,-0.00901581,0.0290693,-0.0119196,-0.16669,-0.176036,0.455175,0.708229,-0.0101176,1.29798,-7.30489,8.24749,-1.46477,0.708229,-0.0101176,11.0917,,,,,,,
364.219,-71.8046,42.3734,95.4855,0.701514,-0.20782,-0.584352,0.35103,0.243288,-0.717141,-0.137895,-0.704304,1.04531,-0.773121,-0.221676,0.432395,0.172781,31.62,95.687,0.025,0.342274,-0.993891,-0.188001,-0.00901581,0.0290693,-0.0119196,-0.16669,-0.176036,0.455175,0.708229,-0.0101176,1.29798,-7.30489,8.24749,-1.46477,0.708229,-0.0101176,11.0917,,,,,,,
364.244,-74.6918,42.9231,94.2001,0.69307,-0.215568,-0.597383,0.341054,0.217036,-0.749443,-0.106469,-0.203127,1.19567,-0.790652,-0.216824,0.431275,0.176436,31.6175,95.653,0.025001,0.320211,-1.09092,-0.161306,-0.00895233,0.0282383,-0.00923655,-0.167093,-0.175691,0.453159,0.861629,-0.49278,1.05394,-6.87283,8.34806,-1.3159,0.861629,-0.49278,10.8477,,,,,,,
364.27,-74.6918,42.9231,94.2001,0.69307,-0.215568,-0.597383,0.341054,0.217036,-0.749443,-0.106469,-0.203127,1.19567,-0.790652,-0.216824,0.431275,0.176436,31.6175,95.653,0.025001,0.320211,-1.09092,-0.161306,-0.00895233,0.0282383,-0.00923655,-0.167093,-0.175691,0.453159,0.861629,-0.49278,1.05394,-6.87283,8.34806,-1.3159,0.861629,-0.49278,10.8477,,,,,,,
364.295,-77.451,43.262,92.859,0.684382,-0.223119,-0.609184,0.332767,0.173679,-0.69377,-0.0582615,-0.96192,0.955125,-0.39465,-0.214867,0.432266,0.179924,31.62,95.664,0.025,0.254396,-0.994282,-0.0806579,-0.0110581,0.0265339,-0.00727343,-0.167499,-0.173802,0.455117,0.331019,0.107735,1.36825,-7.67392,8.07832,-0.750384,0.331019,0.107735,11.162,,,,,,,
364.32,-80.0527,43.4718,91.5464,0.675836,-0.230301,-0.619904,0.325464,0.156971,-0.615936,-0.0251174,-0.614392,1.02471,-0.664095,-0.208081,0.4301,0.187087,31.62,95.653,0.025,0.225985,-0.913412,-0.0438088,-0.00968447,0.0259113,-0.00844528,-0.171228,-0.173505,0.451511,0.673484,-0.157225,1.17908,-7.35246,8.12958,-0.855896,0.673484,-0.157225,10.9728,,,,,,,
364.345,-80.0527,43.4718,91.5464,0.675836,-0.230301,-0.619904,0.325464,0.156971,-0.615936,-0.0251174,-0.614392,1.02471,-0.664095,-0.208081,0.4301,0.187087,31.62,95.653,0.025,0.225985,-0.913412,-0.0438088,-0.00968447,0.0259113,-0.00844528,-0.171228,-0.173505,0.451511,0.673484,-0.157225,1.17908,-7.35246,8.12958,-0.855896,0.673484,-0.157225,10.9728,,,,,,,
364.37,-81.1859,43.5031,90.9859,0.672016,-0.23374,-0.624335,0.322437,0.152912,-0.554291,-0.00216238,-0.513776,0.983427,-0.375776,-0.205133,0.43307,0.184938,31.62,95.641,0.025,0.216391,-0.820273,-0.00505679,-0.00957745,0.0257599,-0.00972736,-0.167551,-0.174836,0.45298,0.40186,-0.250051,1.07158,-7.25573,8.08615,-0.498007,0.40186,-0.250051,10.8653,,,,,,,
364.396,-81.1859,43.5031,90.9859,0.672016,-0.23374,-0.624335,0.322437,0.152912,-0.554291,-0.00216238,-0.513776,0.983427,-0.375776,-0.205133,0.43307,0.184938,31.62,95.641,0.025,0.216391,-0.820273,-0.00505679,-0.00957745,0.0257599,-0.00972736,-0.167551,-0.174836,0.45298,0.40186,-0.250051,1.07158,-7.25573,8.08615,-0.498007,0.40186,-0.250051,10.8653,,,,,,,
364.421,-83.2461,43.4817,90.0051,0.664973,-0.240507,-0.632052,0.316981,0.139484,-0.494591,0.0286057,-0.683197,0.92548,-0.108779,-0.19832,0.43296,0.195479,31.62,95.585,0.024999,0.209258,-0.719308,0.0350646,-0.0129712,0.0246678,-0.0056604,-0.176048,-0.175943,0.450609,0.124539,-0.127365,1.14165,-7.4225,8.03176,-0.109417,0.124539,-0.127365,10.9354,,,,,,,
364.446,-85.112,43.3331,89.1124,0.658227,-0.247191,-0.638677,0.312612,0.132682,-0.434874,0.0624522,-0.367572,0.98907,-0.189142,-0.196304,0.439999,0.187576,31.62,95.608,0.024999,0.183901,-0.642707,0.0904332,-0.0111979,0.0249328,-0.00751068,-0.166353,-0.175929,0.456831,0.238571,-0.390374,0.969451,-7.08842,8.11196,-0.0787925,0.238571,-0.390374,10.7632,,,,,,,
364.472,-85.112,43.3331,89.1124,0.658227,-0.247191,-0.638677,0.312612,0.132682,-0.434874,0.0624522,-0.367572,0.98907,-0.189142,-0.196304,0.439999,0.187576,31.62,95.608,0.024999,0.183901,-0.642707,0.0904332,-0.0111979,0.0249328,-0.00751068,-0.166353,-0.175929,0.456831,0.238571,-0.390374,0.969451,-7.08842,8.11196,-0.0787925,0.238571,-0.390374,10.7632,,,,,,,
364.497,-86.6094,43.079,88.4466,0.652563,-0.253498,-0.643537,0.309452,0.116506,-0.334778,0.0943179,-0.10433,1.05,-0.170316,-0.192411,0.439943,0.194572,31.62,95.585,0.024999,0.170547,-0.513038,0.132542,-0.0102013,0.0247847,-0.0064072,-0.172588,-0.173948,0.456493,0.236075,-0.624666,0.834536,-6.79352,8.20084,0.0236051,0.236075,-0.624666,10.6283,,,,,,,
364.522,-86.6094,43.079,88.4466,0.652563,-0.253498,-0.643537,0.309452,0.116506,-0.334778,0.0943179,-0.10433,1.05,-0.170316,-0.192411,0.439943,0.194572,31.62,95.585,0.024999,0.170547,-0.513038,0.132542,-0.0102013,0.0247847,-0.0064072,-0.172588,-0.173948,0.456493,0.236075,-0.624666,0.834536,-6.79352,8.20084,0.0236051,0.236075,-0.624666,10.6283,,,,,,,
364.547,-87.228,42.9175,88.1967,0.650127,-0.256539,-0.645352,0.308291,0.125202,-0.314783,0.108351,0.0584568,1.1263,-0.489134,-0.18853,0.439813,0.189104,31.62,95.562,0.025001,0.168993,-0.454584,0.15633,-0.00882569,0.0251078,-0.00909941,-0.16697,-0.173603,0.454668,0.562357,-0.772603,0.773341,-6.61054,8.29505,-0.263434,0.562357,-0.772603,10.5671,,,,,,,
364.572,-87.228,42.9175,88.1967,0.650127,-0.256539,-0.645352,0.308291,0.125202,-0.314783,0.108351,0.0584568,1.1263,-0.489134,-0.18853,0.439813,0.189104,31.62,95.562,0.025001,0.168993,-0.454584,0.15633,-0.00882569,0.0251078,-0.00909941,-0.16697,-0.173603,0.454668,0.562357,-0.772603,0.773341,-6.61054,8.29505,-0.263434,0.562357,-0.772603,10.5671,,,,,,,
364.598,-88.3837,42.5944,87.7893,0.645622,-0.262629,-0.648571,0.305866,0.134017,-0.285846,0.0978765,-0.422429,0.941347,-0.255819,-0.185585,0.441819,0.196029,31.63,95.555,0.025001,0.187832,-0.415531,0.153731,-0.0130414,0.0243017,-0.00421871,-0.174051,-0.172277,0.45618,0.30082,-0.310618,0.971107,-7.05088,8.14577,0.0222888,0.30082,-0.310618,10.7649,,,,,,,
364.623,-89.4441,42.3097,87.4777,0.641611,-0.268446,-0.651421,0.303188,0.153165,-0.277833,0.072579,-0.641126,0.955913,-0.602648,-0.179702,0.446742,0.191743,31.62,95.528,0.025,0.202856,-0.393886,0.122786,-0.0130404,0.0238763,-0.00537275,-0.170208,-0.174875,0.457257,0.645566,-0.144605,1.11818,-7.23367,8.19153,-0.28391,0.645566,-0.144605,10.9119,,,,,,,
364.648,-89.4441,42.3097,87.4777,0.641611,-0.268446,-0.651421,0.303188,0.153165,-0.277833,0.072579,-0.641126,0.955913,-0.602648,-0.179702,0.446742,0.191743,31.62,95.528,0.025,0.202856,-0.393886,0.122786,-0.0130404,0.0238763,-0.00537275,-0.170208,-0.174875,0.457257,0.645566,-0.144605,1.11818,-7.23367,8.19153,-0.28391,0.645566,-0.144605,10.9119,,,,,,,
364.674,-90.5587,42.1155,87.1909,0.637707,-0.274141,-0.654571,0.299522,0.170721,-0.302253,0.0388198,-0.183259,1.00507,-0.287661,-0.17776,0.446688,0.190709,31.62,95.495,0.025001,0.237484,-0.422653,0.0738812,-0.00866191,0.0242542,-0.0062025,-0.170273,-0.171955,0.457096,0.331409,-0.531076,0.857098,-6.75121,8.26129,0.0683791,0.331409,-0.531076,10.6508,,,,,,,
364.699,-90.5587,42.1155,87.1909,0.637707,-0.274141,-0.654571,0.299522,0.170721,-0.302253,0.0388198,-0.183259,1.00507,-0.287661,-0.17776,0.446688,0.190709,31.62,95.495,0.025001,0.237484,-0.422653,0.0738812,-0.00866191,0.0242542,-0.0062025,-0.170273,-0.171955,0.457096,0.331409,-0.531076,0.857098,-6.75121,8.26129,0.0683791,0.331409,-0.531076,10.6508,,,,,,,
364.724,-91.1844,42.0695,87.0335,0.635669,-0.276978,-0.656472,0.297075,0.190875,-0.341073,0.00449599,-0.48264,0.943555,-0.622276,-0.175792,0.448692,0.193053,31.625,95.495,0.024999,0.259151,-0.463569,0.0305938,-0.0137631,0.0223777,-0.00865982,-0.173185,-0.17289,0.457835,0.664932,-0.265307,0.998971,-7.04476,8.20403,-0.246025,0.664932,-0.265307,10.7927,,,,,,,
364.75,-91.1844,42.0695,87.0335,0.635669,-0.276978,-0.656472,0.297075,0.190875,-0.341073,0.00449599,-0.48264,0.943555,-0.622276,-0.175792,0.448692,0.193053,31.625,95.495,0.024999,0.259151,-0.463569,0.0305938,-0.0137631,0.0223777,-0.00865982,-0.173185,-0.17289,0.457835,0.664932,-0.265307,0.998971,-7.04476,8.20403,-0.246025,0.664932,-0.265307,10.7927,,,,,,,
364.775,-92.7152,42.0867,86.589,0.630837,-0.282784,-0.661522,0.290631,0.206378,-0.428785,-0.0551393,-0.414081,0.913362,-0.213033,-0.16998,0.446527,0.196767,31.62,95.495,0.025,0.292127,-0.598405,-0.0523509,-0.00974346,0.0225716,-0.00085582,-0.178208,-0.172208,0.453413,0.252711,-0.307618,0.944767,-6.97838,8.16874,0.219418,0.252711,-0.307618,10.7385,,,,,,,
364.801,-94.5247,42.2692,85.9972,0.625371,-0.288241,-0.667912,0.282351,0.233996,-0.508832,-0.123959,-0.184385,0.982473,-0.369416,-0.168986,0.448534,0.195663,31.62,95.483,0.025,0.320225,-0.692315,-0.151427,-0.00733836,0.0227183,-0.00492705,-0.177966,-0.171588,0.454872,0.395863,-0.538332,0.830187,-6.7718,8.2121,0.136487,0.395863,-0.538332,10.6239,,,,,,,
364.826,-94.5247,42.2692,85.9972,0.625371,-0.288241,-0.667912,0.282351,0.233996,-0.508832,-0.123959,-0.184385,0.982473,-0.369416,-0.168986,0.448534,0.195663,31.62,95.483,0.025,0.320225,-0.692315,-0.151427,-0.00733836,0.0227183,-0.00492705,-0.177966,-0.171588,0.454872,0.395863,-0.538332,0.830187,-6.7718,8.2121,0.136487,0.395863,-0.538332,10.6239,,,,,,,
364.851,-95.5612,42.421,85.6394,0.622325,-0.290942,-0.671657,0.277384,0.244296,-0.543768,-0.158451,-0.21099,0.920774,-0.228827,-0.168966,0.450567,0.194511,31.64,95.487,0.025001,0.337619,-0.750437,-0.198893,-0.00900324,0.0220761,-0.00611603,-0.177186,-0.171943,0.456547,0.252984,-0.478609,0.80724,-6.81758,8.12967,0.320887,0.252984,-0.478609,10.601,,,,,,,
364.876,-95.5612,42.421,85.6394,0.622325,-0.290942,-0.671657,0.277384,0.244296,-0.543768,-0.158451,-0.21099,0.920774,-0.228827,-0.168966,0.450567,0.194511,31.64,95.487,0.025001,0.337619,-0.750437,-0.198893,-0.00900324,0.0220761,-0.00611603,-0.177186,-0.171943,0.456547,0.252984,-0.478609,0.80724,-6.81758,8.12967,0.320887,0.252984,-0.478609,10.601,,,,,,,
364.902,-98.0314,42.8483,84.709,0.615094,-0.296405,-0.680707,0.26541,0.269366,-0.688149,-0.226102,-0.309974,0.852731,-0.20662,-0.166965,0.455622,0.195693,31.62,95.461,0.024999,0.381199,-0.94447,-0.305508,-0.00666718,0.0226452,-0.00952894,-0.179063,-0.17509,0.459396,0.234469,-0.373644,0.819354,-6.9703,8.0025,0.455514,0.234469,-0.373644,10.6131,,,,,,,
364.927,-101.1,43.3649,83.384,0.605756,-0.301959,-0.691957,0.251148,0.263779,-0.800873,-0.28082,-0.459265,0.812473,0.0893084,-0.162983,0.463705,0.200342,31.62,95.427,0.025,0.379854,-1.12151,-0.382455,-0.00817574,0.0220366,-0.00669946,-0.183991,-0.181615,0.463558,-0.0389673,-0.224034,0.909562,-7.18406,7.88507,0.909636,-0.0389673,-0.224034,10.7033,,,,,,,
364.952,-101.1,43.3649,83.384,0.605756,-0.301959,-0.691957,0.251148,0.263779,-0.800873,-0.28082,-0.459265,0.812473,0.0893084,-0.162983,0.463705,0.200342,31.62,95.427,0.025,0.379854,-1.12151,-0.382455,-0.00817574,0.0220366,-0.00669946,-0.183991,-0.181615,0.463558,-0.0389673,-0.224034,0.909562,-7.18406,7.88507,0.909636,-0.0389673,-0.224034,10.7033,,,,,,,
364.977,-104.567,43.8969,81.709,0.594807,-0.307002,-0.704534,0.235767,0.244089,-0.877738,-0.303876,-0.150696,0.939471,-0.13849,-0.161177,0.451405,0.19716,31.62,95.393,0.025001,0.348757,-1.23636,-0.425093,-0.00533545,0.0229804,-0.00915095,-0.179472,-0.173732,0.454119,0.132427,-0.573905,0.759994,-6.94131,7.92298,0.879169,0.132427,-0.573905,10.5537,,,,,,,
365.003,-104.567,43.8969,81.709,0.594807,-0.307002,-0.704534,0.235767,0.244089,-0.877738,-0.303876,-0.150696,0.939471,-0.13849,-0.161177,0.451405,0.19716,31.62,95.393,0.025001,0.348757,-1.23636,-0.425093,-0.00533545,0.0229804,-0.00915095,-0.179472,-0.173732,0.454119,0.132427,-0.573905,0.759994,-6.94131,7.92298,0.879169,0.132427,-0.573905,10.5537,,,,,,,
365.028,-106.441,44.1338,80.747,0.588672,-0.309456,-0.711201,0.227806,0.233687,-0.913682,-0.307045,-0.311613,0.85824,-0.129871,-0.159228,0.451391,0.202924,31.62,95.393,0.025,0.338083,-1.29327,-0.430816,-0.00689962,0.0219235,-0.00669487,-0.184372,-0.173584,0.45405,0.155765,-0.412615,0.809958,-7.13135,7.79591,1.00037,0.155765,-0.412615,10.6037,,,,,,,
365.053,-110.313,44.5133,78.6553,0.575563,-0.313991,-0.724697,0.212017,0.202874,-0.937025,-0.291802,-0.377207,0.800828,-0.169416,-0.157296,0.450316,0.201899,31.635,95.37,0.024999,0.293421,-1.33189,-0.419819,-0.00609837,0.0211914,-0.00933095,-0.180754,-0.17324,0.453438,0.213902,-0.354424,0.800589,-7.24336,7.64817,1.20438,0.213902,-0.354424,10.5943,,,,,,,
365.079,-110.313,44.5133,78.6553,0.575563,-0.313991,-0.724697,0.212017,0.202874,-0.937025,-0.291802,-0.377207,0.800828,-0.169416,-0.157296,0.450316,0.201899,31.635,95.37,0.024999,0.293421,-1.33189,-0.419819,-0.00609837,0.0211914,-0.00933095,-0.180754,-0.17324,0.453438,0.213902,-0.354424,0.800589,-7.24336,7.64817,1.20438,0.213902,-0.354424,10.5943,,,,,,,
365.104,-114.267,44.7037,76.3937,0.561396,-0.318171,-0.73812,0.196929,0.161684,-0.954735,-0.257725,-0.351386,0.7267,0.135776,-0.150491,0.450167,0.205642,31.62,95.359,0.025,0.241359,-1.35887,-0.377385,-0.0063727,0.020372,-0.00551825,-0.182185,-0.175477,0.451224,-0.0752405,-0.26177,0.771891,-7.2407,7.49229,1.77333,-0.0752405,-0.26177,10.5656,,,,,,,
365.129,-114.267,44.7037,76.3937,0.561396,-0.318171,-0.73812,0.196929,0.161684,-0.954735,-0.257725,-0.351386,0.7267,0.135776,-0.150491,0.450167,0.205642,31.62,95.359,0.025,0.241359,-1.35887,-0.377385,-0.0063727,0.020372,-0.00551825,-0.182185,-0.175477,0.451224,-0.0752405,-0.26177,0.771891,-7.2407,7.49229,1.77333,-0.0752405,-0.26177,10.5656,,,,,,,
365.154,-118.098,44.6823,74.069,0.546745,-0.321698,-0.750963,0.183396,0.105031,-0.884222,-0.21552,-0.485352,0.742516,-0.0383198,-0.148496,0.454228,0.211366,31.62,95.348,0.024999,0.160802,-1.28846,-0.311566,-0.00850206,0.0197086,-0.00704163,-0.18345,-0.17678,0.456228,0.141846,-0.245289,0.841474,-7.37207,7.43859,1.87302,0.141846,-0.245289,10.6352,,,,,,,
365.18,-118.098,44.6823,74.069,0.546745,-0.321698,-0.750963,0.183396,0.105031,-0.884222,-0.21552,-0.485352,0.742516,-0.0383198,-0.148496,0.454228,0.211366,31.62,95.348,0.024999,0.160802,-1.28846,-0.311566,-0.00850206,0.0197086,-0.00704163,-0.18345,-0.17678,0.456228,0.141846,-0.245289,0.841474,-7.37207,7.43859,1.87302,0.141846,-0.245289,10.6352,,,,,,,
365.205,-119.892,44.5998,72.9385,0.539538,-0.323179,-0.756956,0.1774,0.0839029,-0.847942,-0.181598,-0.162688,0.773979,-0.144063,-0.143706,0.447041,0.223012,31.63,95.329,0.025001,0.128283,-1.24523,-0.275147,-0.00622283,0.0200349,-0.0074288,-0.192574,-0.170391,0.45179,0.129874,-0.506067,0.610977,-7.03937,7.44051,1.90192,0.129874,-0.506067,10.4047,,,,,,,
365.23,-123.018,44.3035,70.9175,0.526236,-0.325719,-0.767389,0.167623,0.0414964,-0.715742,-0.112708,-0.302201,0.702005,-0.130366,-0.138847,0.446921,0.223258,31.62,95.336,0.025,0.0660155,-1.05705,-0.172714,-0.00657131,0.0194096,-0.00749899,-0.188782,-0.171437,0.451478,0.177317,-0.37443,0.655357,-7.14273,7.32575,2.16104,0.177317,-0.37443,10.4491,,,,,,,
365.255,-123.018,44.3035,70.9175,0.526236,-0.325719,-0.767389,0.167623,0.0414964,-0.715742,-0.112708,-0.302201,0.702005,-0.130366,-0.138847,0.446921,0.223258,31.62,95.336,0.025,0.0660155,-1.05705,-0.172714,-0.00657131,0.0194096,-0.00749899,-0.188782,-0.171437,0.451478,0.177317,-0.37443,0.655357,-7.14273,7.32575,2.16104,0.177317,-0.37443,10.4491,,,,,,,
365.281,-125.494,43.8841,69.2569,0.514707,-0.327782,-0.775757,0.160737,0.0112009,-0.565562,-0.0407679,-0.379482,0.734975,-0.54965,-0.132985,0.448868,0.232598,31.62,95.325,0.025001,0.0183044,-0.847554,-0.0714023,-0.00598319,0.0189336,-0.00813208,-0.194122,-0.171381,0.454109,0.590956,-0.504962,0.618137,-7.16853,7.33619,1.95042,0.590956,-0.504962,10.4119,,,,,,,
365.306,-125.494,43.8841,69.2569,0.514707,-0.327782,-0.775757,0.160737,0.0112009,-0.565562,-0.0407679,-0.379482,0.734975,-0.54965,-0.132985,0.448868,0.232598,31.62,95.325,0.025001,0.0183044,-0.847554,-0.0714023,-0.00598319,0.0189336,-0.00813208,-0.194122,-0.171381,0.454109,0.590956,-0.504962,0.618137,-7.16853,7.33619,1.95042,0.590956,-0.504962,10.4119,,,,,,,
365.331,-127.321,43.4054,68.0056,0.505272,-0.329629,-0.782034,0.156423,-0.00365923,-0.444899,0.00943801,-0.507315,0.657447,-0.420375,-0.128103,0.450784,0.232823,31.62,95.291,0.025001,-0.00154232,-0.662553,0.00894222,-0.00647924,0.0181791,-0.0081877,-0.191452,-0.17352,0.455039,0.540868,-0.339577,0.677104,-7.23715,7.25485,2.2444,0.540868,-0.339577,10.4708,,,,,,,
365.356,-127.321,43.4054,68.0056,0.505272,-0.329629,-0.782034,0.156423,-0.00365923,-0.444899,0.00943801,-0.507315,0.657447,-0.420375,-0.128103,0.450784,0.232823,31.62,95.291,0.025001,-0.00154232,-0.662553,0.00894222,-0.00647924,0.0181791,-0.0081877,-0.191452,-0.17352,0.455039,0.540868,-0.339577,0.677104,-7.23715,7.25485,2.2444,0.540868,-0.339577,10.4708,,,,,,,
365.382,-128.063,43.1513,67.485,0.50109,-0.330494,-0.784645,0.154964,-0.00950547,-0.399532,0.0282354,-0.18548,0.725264,-0.413402,-0.127088,0.454824,0.230567,31.62,95.325,0.024999,-0.0139665,-0.593818,0.0389259,-0.00473482,0.0180264,-0.0062673,-0.187801,-0.176849,0.457857,0.387007,-0.575661,0.500152,-6.88369,7.3257,2.32262,0.387007,-0.575661,10.2939,,,,,,,
365.407,-129.372,42.6253,66.5661,0.493262,-0.332239,-0.7893,0.152694,-0.00381272,-0.367736,0.0445135,-0.0852533,0.74802,-0.584017,-0.119408,0.445505,0.238981,31.62,95.28,0.024999,-0.0137104,-0.532615,0.0676756,-0.00653942,0.0173354,-0.00670487,-0.193233,-0.169119,0.451558,0.488932,-0.717836,0.391834,-6.71758,7.35987,2.28183,0.488932,-0.717836,10.1856,,,,,,,
365.432,-129.372,42.6253,66.5661,0.493262,-0.332239,-0.7893,0.152694,-0.00381272,-0.367736,0.0445135,-0.0852533,0.74802,-0.584017,-0.119408,0.445505,0.238981,31.62,95.28,0.024999,-0.0137104,-0.532615,0.0676756,-0.00653942,0.0173354,-0.00670487,-0.193233,-0.169119,0.451558,0.488932,-0.717836,0.391834,-6.71758,7.35987,2.28183,0.488932,-0.717836,10.1856,,,,,,,
365.457,-130.601,42.084,65.753,0.48566,-0.334278,-0.79357,0.150462,0.016726,-0.367589,0.0413229,-0.328222,0.662765,-0.406778,-0.113571,0.445394,0.244941,31.62,95.269,0.024999,0.0135407,-0.523411,0.0703399,-0.00840848,0.0164526,-0.0066212,-0.196842,-0.167537,0.452166,0.456073,-0.456053,0.544489,-6.89217,7.29012,2.57821,0.456073,-0.456053,10.3382,,,,,,,
365.483,-130.601,42.084,65.753,0.48566,-0.334278,-0.79357,0.150462,0.016726,-0.367589,0.0413229,-0.328222,0.662765,-0.406778,-0.113571,0.445394,0.244941,31.62,95.269,0.024999,0.0135407,-0.523411,0.0703399,-0.00840848,0.0164526,-0.0066212,-0.196842,-0.167537,0.452166,0.456073,-0.456053,0.544489,-6.89217,7.29012,2.57821,0.456073,-0.456053,10.3382,,,,,,,
365.508,-131.201,41.8204,65.3835,0.481966,-0.335406,-0.795582,0.149204,0.0277743,-0.35608,0.0356096,-0.417184,0.587261,-0.268082,-0.114436,0.455576,0.239128,31.63,95.269,0.025001,0.0295527,-0.512771,0.0633021,-0.00912985,0.0160554,-0.00737368,-0.190276,-0.175397,0.459193,0.386766,-0.299577,0.592833,-6.94764,7.2226,2.77213,0.386766,-0.299577,10.3866,,,,,,,
365.533,-132.436,41.2903,64.6734,0.474454,-0.337909,-0.799574,0.146263,0.048506,-0.368679,0.0302135,-0.254537,0.655128,-0.387964,-0.108669,0.449335,0.242881,31.64,95.261,0.025001,0.057493,-0.528617,0.0534223,-0.00606506,0.0159563,-0.00575225,-0.192171,-0.169701,0.454944,0.404924,-0.492135,0.488197,-6.71718,7.30661,2.75996,0.404924,-0.492135,10.2819,,,,,,,
365.558,-132.436,41.2903,64.6734,0.474454,-0.337909,-0.799574,0.146263,0.048506,-0.368679,0.0302135,-0.254537,0.655128,-0.387964,-0.108669,0.449335,0.242881,31.64,95.261,0.025001,0.057493,-0.528617,0.0534223,-0.00606506,0.0159563,-0.00575225,-0.192171,-0.169701,0.454944,0.404924,-0.492135,0.488197,-6.71718,7.30661,2.75996,0.404924,-0.492135,10.2819,,,,,,,
365.583,-133.691,40.7818,64,0.466991,-0.340517,-0.803477,0.142801,0.0593845,-0.373346,0.0122839,-0.250685,0.622939,-0.112935,-0.103785,0.451267,0.245374,31.62,95.246,0.025001,0.0775525,-0.538373,0.0267004,-0.00612678,0.0157104,-0.00497246,-0.193679,-0.169847,0.456357,0.171687,-0.362553,0.550209,-6.64777,7.28826,3.13796,0.171687,-0.362553,10.344,,,,,,,
365.609,-133.691,40.7818,64,0.466991,-0.340517,-0.803477,0.142801,0.0593845,-0.373346,0.0122839,-0.250685,0.622939,-0.112935,-0.103785,0.451267,0.245374,31.62,95.246,0.025001,0.0775525,-0.538373,0.0267004,-0.00612678,0.0157104,-0.00497246,-0.193679,-0.169847,0.456357,0.171687,-0.362553,0.550209,-6.64777,7.28826,3.13796,0.171687,-0.362553,10.344,,,,,,,
365.634,-134.943,40.2976,63.3579,0.459663,-0.343085,-0.807266,0.13901,0.065585,-0.374425,-0.00235733,-0.36659,0.597364,-0.354415,-0.0999708,0.445021,0.239965,31.64,95.239,0.025001,0.0870548,-0.529962,0.00827544,-0.00712579,0.0153328,-0.00596656,-0.187599,-0.166834,0.450104,0.439997,-0.386774,0.523117,-6.70077,7.27392,2.9951,0.439997,-0.386774,10.3169,,,,,,,
365.659,-134.943,40.2976,63.3579,0.459663,-0.343085,-0.807266,0.13901,0.065585,-0.374425,-0.00235733,-0.36659,0.597364,-0.354415,-0.0999708,0.445021,0.239965,31.64,95.239,0.025001,0.0870548,-0.529962,0.00827544,-0.00712579,0.0153328,-0.00596656,-0.187599,-0.166834,0.450104,0.439997,-0.386774,0.523117,-6.70077,7.27392,2.9951,0.439997,-0.386774,10.3169,,,,,,,
365.684,-135.575,40.0656,63.0503,0.456039,-0.344392,-0.809118,0.13693,0.0755087,-0.375059,-0.0106444,-0.367654,0.553221,-0.236434,-0.0970069,0.449045,0.243472,31.62,95.235,0.024999,0.0976309,-0.532619,-0.00236785,-0.00637299,0.0148225,-0.00508951,-0.191169,-0.16844,0.453225,0.346539,-0.306531,0.532047,-6.67154,7.2345,3.16047,0.346539,-0.306531,10.3258,,,,,,,
365.71,-136.946,39.5949,62.41,0.44836,-0.347177,-0.81302,0.132059,0.0826857,-0.407822,-0.0318371,-0.307288,0.556172,0.0383455,-0.0940656,0.451031,0.246998,31.62,95.235,0.025,0.118928,-0.582447,-0.0297477,-0.00708522,0.0140992,-0.00205432,-0.193321,-0.166901,0.456132,0.0878334,-0.223944,0.589371,-6.54938,7.24475,3.53357,0.0878334,-0.223944,10.3831,,,,,,,
365.735,-136.946,39.5949,62.41,0.44836,-0.347177,-0.81302,0.132059,0.0826857,-0.407822,-0.0318371,-0.307288,0.556172,0.0383455,-0.0940656,0.451031,0.246998,31.62,95.235,0.025,0.118928,-0.582447,-0.0297477,-0.00708522,0.0140992,-0.00205432,-0.193321,-0.166901,0.456132,0.0878334,-0.223944,0.589371,-6.54938,7.24475,3.53357,0.0878334,-0.223944,10.3831,,,,,,,
365.76,-138.398,39.1389,61.7412,0.440445,-0.349855,-0.817066,0.126542,0.0902749,-0.435627,-0.0501275,-0.0934041,0.660457,-0.520224,-0.0892172,0.44989,0.247253,31.62,95.201,0.025,0.127916,-0.613829,-0.0597451,-0.00573346,0.0141685,-0.00626409,-0.193724,-0.16561,0.454466,0.407696,-0.668955,0.31913,-6.27524,7.35133,3.07623,0.407696,-0.668955,10.1129,,,,,,,
365.785,-138.398,39.1389,61.7412,0.440445,-0.349855,-0.817066,0.126542,0.0902749,-0.435627,-0.0501275,-0.0934041,0.660457,-0.520224,-0.0892172,0.44989,0.247253,31.62,95.201,0.025,0.127916,-0.613829,-0.0597451,-0.00573346,0.0141685,-0.00626409,-0.193724,-0.16561,0.454466,0.407696,-0.668955,0.31913,-6.27524,7.35133,3.07623,0.407696,-0.668955,10.1129,,,,,,,
365.811,-139.995,38.6448,61.0021,0.431734,-0.352551,-0.821485,0.120318,0.0920196,-0.479584,-0.0636867,-0.181319,0.56877,-0.337899,-0.0833625,0.451797,0.249796,31.62,95.189,0.025,0.12947,-0.674912,-0.0784331,-0.00481451,0.0137841,-0.00472787,-0.19673,-0.165813,0.45527,0.316112,-0.480493,0.373833,-6.29742,7.25908,3.37028,0.316112,-0.480493,10.1676,,,,,,,
365.836,-140.855,38.3903,60.6017,0.427093,-0.35386,-0.823844,0.116857,0.0941968,-0.504911,-0.0792694,-0.277895,0.558334,-0.384015,-0.0804439,0.452689,0.240869,31.62,95.178,0.025001,0.132838,-0.708829,-0.0979131,-0.00556774,0.0140995,-0.00549997,-0.190193,-0.170758,0.451758,0.409662,-0.451325,0.406096,-6.35996,7.24617,3.38412,0.409662,-0.451325,10.1998,,,,,,,
365.861,-140.855,38.3903,60.6017,0.427093,-0.35386,-0.823844,0.116857,0.0941968,-0.504911,-0.0792694,-0.277895,0.558334,-0.384015,-0.0804439,0.452689,0.240869,31.62,95.178,0.025001,0.132838,-0.708829,-0.0979131,-0.00556774,0.0140995,-0.00549997,-0.190193,-0.170758,0.451758,0.409662,-0.451325,0.406096,-6.35996,7.24617,3.38412,0.409662,-0.451325,10.1998,,,,,,,
365.886,-142.765,37.8526,59.7047,0.416913,-0.356407,-0.829032,0.108916,0.0989411,-0.585326,-0.10802,0.029095,0.589539,-0.219651,-0.0736003,0.455626,0.249115,31.63,95.182,0.025001,0.140866,-0.814979,-0.141986,-0.00353678,0.0138824,-0.00443956,-0.198401,-0.169309,0.455019,0.0818643,-0.549533,0.296582,-5.98066,7.26656,3.68134,0.0818643,-0.549533,10.0903,,,,,,,
365.912,-142.765,37.8526,59.7047,0.416913,-0.356407,-0.829032,0.108916,0.0989411,-0.585326,-0.10802,0.029095,0.589539,-0.219651,-0.0736003,0.455626,0.249115,31.63,95.182,0.025001,0.140866,-0.814979,-0.141986,-0.00353678,0.0138824,-0.00443956,-0.198401,-0.169309,0.455019,0.0818643,-0.549533,0.296582,-5.98066,7.26656,3.68134,0.0818643,-0.549533,10.0903,,,,,,,
365.937,-144.893,37.247,58.6734,0.405459,-0.358704,-0.834829,0.0999775,0.092657,-0.645064,-0.129614,-0.0971884,0.555042,-0.459102,-0.0716443,0.456603,0.250337,31.62,95.167,0.025001,0.128488,-0.899077,-0.172259,-0.00558107,0.0124815,-0.00586863,-0.197368,-0.167541,0.457454,0.338223,-0.594361,0.246236,-6.02488,7.21465,3.59423,0.338223,-0.594361,10.04,,,,,,,
365.962,-144.893,37.247,58.6734,0.405459,-0.358704,-0.834829,0.0999775,0.092657,-0.645064,-0.129614,-0.0971884,0.555042,-0.459102,-0.0716443,0.456603,0.250337,31.62,95.167,0.025001,0.128488,-0.899077,-0.172259,-0.00558107,0.0124815,-0.00586863,-0.197368,-0.167541,0.457454,0.338223,-0.594361,0.246236,-6.02488,7.21465,3.59423,0.338223,-0.594361,10.04,,,,,,,
365.987,-147.253,36.5264,57.5115,0.392377,-0.360868,-0.841253,0.0900399,0.0834484,-0.722459,-0.137982,-0.243737,0.497971,-0.372111,-0.0648645,0.454396,0.250702,31.63,95.148,0.025,0.120153,-1.01494,-0.187471,-0.00524888,0.012357,-0.00414743,-0.197804,-0.165983,0.454816,0.368992,-0.453889,0.321993,-6.0729,7.13638,3.85515,0.368992,-0.453889,10.1157,,,,,,,
366.013,-148.494,36.1236,56.8885,0.385317,-0.361811,-0.844647,0.0848278,0.075611,-0.747332,-0.142733,-0.199217,0.505724,-0.254051,-0.0609526,0.456352,0.253145,31.62,95.144,0.025,0.109996,-1.05576,-0.194981,-0.00463849,0.0125417,-0.0044355,-0.200185,-0.1664,0.45639,0.249617,-0.420617,0.347505,-5.97292,7.13194,4.06742,0.249617,-0.420617,10.1413,,,,,,,
366.038,-148.494,36.1236,56.8885,0.385317,-0.361811,-0.844647,0.0848278,0.075611,-0.747332,-0.142733,-0.199217,0.505724,-0.254051,-0.0609526,0.456352,0.253145,31.62,95.144,0.025,0.109996,-1.05576,-0.194981,-0.00463849,0.0125417,-0.0044355,-0.200185,-0.1664,0.45639,0.249617,-0.420617,0.347505,-5.97292,7.13194,4.06742,0.249617,-0.420617,10.1413,,,,,,,
366.063,-151.035,35.2224,55.5836,0.370289,-0.36335,-0.851672,0.0742791,0.0524642,-0.794561,-0.134821,-0.114745,0.47459,-0.0470205,-0.0551398,0.455148,0.246652,31.62,95.133,0.025,0.0785339,-1.12261,-0.188436,-0.00274546,0.0125225,-0.00258285,-0.194363,-0.169044,0.452421,0.0465474,-0.32516,0.364304,-5.7633,7.07479,4.47501,0.0465474,-0.32516,10.1581,,,,,,,
366.088,-151.035,35.2224,55.5836,0.370289,-0.36335,-0.851672,0.0742791,0.0524642,-0.794561,-0.134821,-0.114745,0.47459,-0.0470205,-0.0551398,0.455148,0.246652,31.62,95.133,0.025,0.0785339,-1.12261,-0.188436,-0.00274546,0.0125225,-0.00258285,-0.194363,-0.169044,0.452421,0.0465474,-0.32516,0.364304,-5.7633,7.07479,4.47501,0.0465474,-0.32516,10.1581,,,,,,,
366.114,-153.636,34.1941,54.2291,0.35413,-0.364475,-0.858901,0.0635516,0.0405076,-0.837419,-0.136213,-0.218496,0.477824,-0.238142,-0.0483138,0.456071,0.25945,31.62,95.11,0.024999,0.0560206,-1.17959,-0.186278,-0.00538223,0.0118758,-0.00446944,-0.201986,-0.162707,0.458669,0.246645,-0.405139,0.328324,-5.72257,7.05048,4.49713,0.246645,-0.405139,10.1221,,,,,,,
366.139,-154.96,33.6338,53.5408,0.34563,-0.364905,-0.862563,0.0580584,0.0337155,-0.85732,-0.135541,-0.141338,0.491755,-0.23618,-0.0433876,0.462058,0.258503,31.62,95.11,0.025001,0.0481706,-1.21511,-0.186899,-0.00406169,0.0121842,-0.00489084,-0.20263,-0.168248,0.461344,0.182658,-0.44687,0.290728,-5.56592,7.05003,4.60947,0.182658,-0.44687,10.0845,,,,,,,
366.164,-154.96,33.6338,53.5408,0.34563,-0.364905,-0.862563,0.0580584,0.0337155,-0.85732,-0.135541,-0.141338,0.491755,-0.23618,-0.0433876,0.462058,0.258503,31.62,95.11,0.025001,0.0481706,-1.21511,-0.186899,-0.00406169,0.0121842,-0.00489084,-0.20263,-0.168248,0.461344,0.182658,-0.44687,0.290728,-5.56592,7.05003,4.60947,0.182658,-0.44687,10.0845,,,,,,,
366.19,-157.618,32.4256,52.1518,0.327935,-0.365383,-0.869911,0.0469981,0.0122089,-0.889562,-0.131131,-0.205367,0.493322,-0.189765,-0.0365937,0.460882,0.261123,31.62,95.099,0.025001,0.020557,-1.26246,-0.182226,-0.00468449,0.012421,-0.00315675,-0.202152,-0.166078,0.462049,0.197193,-0.408198,0.34065,-5.45681,7.0211,4.8825,0.197193,-0.408198,10.1344,,,,,,,
366.215,-157.618,32.4256,52.1518,0.327935,-0.365383,-0.869911,0.0469981,0.0122089,-0.889562,-0.131131,-0.205367,0.493322,-0.189765,-0.0365937,0.460882,0.261123,31.62,95.099,0.025001,0.020557,-1.26246,-0.182226,-0.00468449,0.012421,-0.00315675,-0.202152,-0.166078,0.462049,0.197193,-0.408198,0.34065,-5.45681,7.0211,4.8825,0.197193,-0.408198,10.1344,,,,,,,
366.24,-160.285,31.0744,50.7641,0.309137,-0.365459,-0.87726,0.0358961,0.00421253,-0.927006,-0.113141,-0.0138111,0.517434,-0.193737,-0.0269337,0.45553,0.259398,31.64,95.103,0.025001,0.00427538,-1.32113,-0.164238,-0.00330601,0.012328,-0.00429307,-0.200023,-0.164322,0.456628,0.0369714,-0.493818,0.245437,-5.06886,7.0146,5.112,0.0369714,-0.493818,10.0392,,,,,,,
366.265,-160.285,31.0744,50.7641,0.309137,-0.365459,-0.87726,0.0358961,0.00421253,-0.927006,-0.113141,-0.0138111,0.517434,-0.193737,-0.0269337,0.45553,0.259398,31.64,95.103,0.025001,0.00427538,-1.32113,-0.164238,-0.00330601,0.012328,-0.00429307,-0.200023,-0.164322,0.456628,0.0369714,-0.493818,0.245437,-5.06886,7.0146,5.112,0.0369714,-0.493818,10.0392,,,,,,,
366.29,-162.794,29.6373,49.4658,0.29019,-0.365173,-0.884187,0.0255449,-0.0183904,-0.88741,-0.0897389,-0.11309,0.460656,-0.18654,-0.0191988,0.451294,0.265496,31.62,95.088,0.025001,-0.0236802,-1.27431,-0.125732,-0.00394154,0.0116749,-0.00443213,-0.200517,-0.157896,0.457586,0.11628,-0.425815,0.254855,-4.95618,6.93028,5.34572,0.11628,-0.425815,10.0486,,,,,,,
366.316,-163.963,28.9117,48.8596,0.280926,-0.364864,-0.887425,0.0207501,-0.031776,-0.856942,-0.0783006,-0.149725,0.474187,-0.0760848,-0.0142945,0.455249,0.265703,31.62,95.088,0.025,-0.0362627,-1.24325,-0.109966,-0.00506647,0.0112384,-0.00320615,-0.201037,-0.161223,0.460049,0.085307,-0.359701,0.34117,-4.88462,6.9306,5.56422,0.085307,-0.359701,10.1349,,,,,,,
366.341,-163.963,28.9117,48.8596,0.280926,-0.364864,-0.887425,0.0207501,-0.031776,-0.856942,-0.0783006,-0.149725,0.474187,-0.0760848,-0.0142945,0.455249,0.265703,31.62,95.088,0.025,-0.0362627,-1.24325,-0.109966,-0.00506647,0.0112384,-0.00320615,-0.201037,-0.161223,0.460049,0.085307,-0.359701,0.34117,-4.88462,6.9306,5.56422,0.085307,-0.359701,10.1349,,,,,,,
366.366,-166.141,27.452,47.7218,0.262825,-0.363914,-0.893503,0.011905,-0.0417925,-0.818579,-0.0541561,-0.120731,0.459872,-0.267137,-0.00358419,0.457009,0.263959,31.64,95.069,0.025,-0.0614941,-1.18403,-0.0776828,-0.0037675,0.0116432,-0.00516753,-0.200872,-0.165066,0.459291,0.153612,-0.484326,0.198122,-4.6357,6.89019,5.57953,0.153612,-0.484326,9.99187,,,,,,,
366.391,-166.141,27.452,47.7218,0.262825,-0.363914,-0.893503,0.011905,-0.0417925,-0.818579,-0.0541561,-0.120731,0.459872,-0.267137,-0.00358419,0.457009,0.263959,31.64,95.069,0.025,-0.0614941,-1.18403,-0.0776828,-0.0037675,0.0116432,-0.00516753,-0.200872,-0.165066,0.459291,0.153612,-0.484326,0.198122,-4.6357,6.89019,5.57953,0.153612,-0.484326,9.99187,,,,,,,
366.417,-168.113,25.9971,46.6993,0.245384,-0.362726,-0.899,0.00396342,-0.0484016,-0.77935,-0.0355471,-0.185194,0.433684,-0.249694,0.0051472,0.455743,0.259879,31.62,95.065,0.024999,-0.0725113,-1.12426,-0.0503449,-0.00397482,0.0108912,-0.00483798,-0.197814,-0.167775,0.456055,0.199657,-0.447624,0.21094,-4.47804,6.84003,5.78749,0.199657,-0.447624,10.0047,,,,,,,
366.442,-169.925,24.5415,45.7678,0.228413,-0.361321,-0.904027,-0.00327779,-0.0580069,-0.746955,-0.0223732,-0.1806,0.400752,0.000350177,0.0158192,0.453465,0.264971,31.62,95.076,0.025,-0.08495,-1.07724,-0.0279837,-0.00393466,0.0103214,-0.00145075,-0.200506,-0.164072,0.457131,0.0930841,-0.267136,0.336441,-4.24846,6.78421,6.21497,0.0930841,-0.267136,10.1302,,,,,,,
366.467,-169.925,24.5415,45.7678,0.228413,-0.361321,-0.904027,-0.00327779,-0.0580069,-0.746955,-0.0223732,-0.1806,0.400752,0.000350177,0.0158192,0.453465,0.264971,31.62,95.076,0.025,-0.08495,-1.07724,-0.0279837,-0.00393466,0.0103214,-0.00145075,-0.200506,-0.164072,0.457131,0.0930841,-0.267136,0.336441,-4.24846,6.78421,6.21497,0.0930841,-0.267136,10.1302,,,,,,,
366.492,-170.768,23.819,45.3388,0.220154,-0.36057,-0.906354,-0.00662069,-0.0561128,-0.721821,-0.0121676,-0.177131,0.423482,-0.185004,0.0148382,0.452483,0.267198,31.62,95.065,0.025001,-0.0852954,-1.05266,-0.0152471,-0.00328606,0.0106174,-0.00519839,-0.196022,-0.161544,0.460255,0.160577,-0.408794,0.228126,-4.13232,6.79621,6.11279,0.160577,-0.408794,10.0219,,,,,,,
366.518,-170.768,23.819,45.3388,0.220154,-0.36057,-0.906354,-0.00662069,-0.0561128,-0.721821,-0.0121676,-0.177131,0.423482,-0.185004,0.0148382,0.452483,0.267198,31.62,95.065,0.025001,-0.0852954,-1.05266,-0.0152471,-0.00328606,0.0106174,-0.00519839,-0.196022,-0.161544,0.460255,0.160577,-0.408794,0.228126,-4.13232,6.79621,6.11279,0.160577,-0.408794,10.0219,,,,,,,
366.543,-172.327,22.4028,44.5512,0.204236,-0.358981,-0.910636,-0.0127376,-0.0641448,-0.690024,0.00132857,-0.15456,0.373537,-0.028402,0.0303909,0.452117,0.271385,31.64,95.047,0.025,-0.0913927,-0.99299,0.00398363,-0.00423808,0.00989907,-0.002885,-0.203095,-0.160352,0.460459,0.0884821,-0.276781,0.282468,-3.88711,6.72574,6.42412,0.0884821,-0.276781,10.0762,,,,,,,
366.568,-172.327,22.4028,44.5512,0.204236,-0.358981,-0.910636,-0.0127376,-0.0641448,-0.690024,0.00132857,-0.15456,0.373537,-0.028402,0.0303909,0.452117,0.271385,31.64,95.047,0.025,-0.0913927,-0.99299,0.00398363,-0.00423808,0.00989907,-0.002885,-0.203095,-0.160352,0.460459,0.0884821,-0.276781,0.282468,-3.88711,6.72574,6.42412,0.0884821,-0.276781,10.0762,,,,,,,
366.593,-173.763,21.001,43.8254,0.18879,-0.357202,-0.914566,-0.0182847,-0.0688497,-0.66506,0.0117886,-0.157544,0.383242,-0.198354,0.0381573,0.450925,0.275187,31.63,95.054,0.025001,-0.101056,-0.957467,0.0218704,-0.0036999,0.00978658,-0.00336984,-0.202744,-0.157725,0.463179,0.147608,-0.400177,0.170616,-3.66747,6.71456,6.39803,0.147608,-0.400177,9.96436,,,,,,,
366.619,-175.102,19.6104,43.1681,0.173701,-0.355395,-0.918136,-0.0234387,-0.0627344,-0.650832,0.0170602,-0.140887,0.403467,-0.175504,0.0469132,0.451713,0.273355,31.62,95.031,0.025001,-0.0956241,-0.92888,0.0317414,-0.00385363,0.00934629,-0.00331704,-0.201879,-0.160264,0.463172,0.118107,-0.405735,0.186724,-3.42788,6.71514,6.55324,0.118107,-0.405735,9.98047,,,,,,,
366.644,-175.102,19.6104,43.1681,0.173701,-0.355395,-0.918136,-0.0234387,-0.0627344,-0.650832,0.0170602,-0.140887,0.403467,-0.175504,0.0469132,0.451713,0.273355,31.62,95.031,0.025001,-0.0956241,-0.92888,0.0317414,-0.00385363,0.00934629,-0.00331704,-0.201879,-0.160264,0.463172,0.118107,-0.405735,0.186724,-3.42788,6.71514,6.55324,0.118107,-0.405735,9.98047,,,,,,,
366.669,-175.753,18.915,42.8667,0.166205,-0.354536,-0.919785,-0.0259778,-0.0575003,-0.644274,0.0189864,-0.0258343,0.427446,-0.306414,0.0517375,0.448527,0.272497,31.625,95.024,0.024999,-0.08839,-0.924312,0.0330628,-0.0037343,0.00958456,-0.00447955,-0.201398,-0.158716,0.460821,0.041611,-0.52009,0.071006,-3.20063,6.7303,6.48418,0.041611,-0.52009,9.86475,,,,,,,
366.694,-175.753,18.915,42.8667,0.166205,-0.354536,-0.919785,-0.0259778,-0.0575003,-0.644274,0.0189864,-0.0258343,0.427446,-0.306414,0.0517375,0.448527,0.272497,31.625,95.024,0.024999,-0.08839,-0.924312,0.0330628,-0.0037343,0.00958456,-0.00447955,-0.201398,-0.158716,0.460821,0.041611,-0.52009,0.071006,-3.20063,6.7303,6.48418,0.041611,-0.52009,9.86475,,,,,,,
366.72,-176.998,17.5406,42.3043,0.151495,-0.352779,-0.922846,-0.0308529,-0.05947,-0.623696,0.0219731,-0.214715,0.325722,-0.112403,0.0585363,0.448329,0.268308,31.62,95.02,0.024999,-0.0889623,-0.897617,0.0382239,-0.00366741,0.00875369,-0.00234027,-0.198371,-0.161598,0.459293,0.180069,-0.307543,0.194485,-3.16637,6.61109,6.79407,0.180069,-0.307543,9.98823,,,,,,,
366.745,-178.191,16.1921,41.786,0.137129,-0.350949,-0.925614,-0.0356186,-0.0574996,-0.61145,0.0188204,-0.213574,0.311349,-0.104471,0.0692225,0.447091,0.276791,31.62,95.009,0.025,-0.0854107,-0.878778,0.0337091,-0.00416975,0.00839359,-0.0036077,-0.202302,-0.155392,0.464998,0.178411,-0.296284,0.183987,-2.94464,6.57855,6.90844,0.178411,-0.296284,9.97773,,,,,,,
366.77,-178.191,16.1921,41.786,0.137129,-0.350949,-0.925614,-0.0356186,-0.0574996,-0.61145,0.0188204,-0.213574,0.311349,-0.104471,0.0692225,0.447091,0.276791,31.62,95.009,0.025,-0.0854107,-0.878778,0.0337091,-0.00416975,0.00839359,-0.0036077,-0.202302,-0.155392,0.464998,0.178411,-0.296284,0.183987,-2.94464,6.57855,6.90844,0.178411,-0.296284,9.97773,,,,,,,
366.795,-179.346,14.8634,41.2995,0.123029,-0.348995,-0.928138,-0.0403153,-0.0651467,-0.599772,0.0193292,-0.102988,0.324003,-0.118188,0.0750268,0.44488,0.272573,31.635,95.013,0.025,-0.0928879,-0.860175,0.0323274,-0.00320025,0.00825477,-0.00181122,-0.198587,-0.156606,0.462473,0.071131,-0.320626,0.147283,-2.61524,6.57155,6.99337,0.071131,-0.320626,9.94103,,,,,,,
366.821,-179.346,14.8634,41.2995,0.123029,-0.348995,-0.928138,-0.0403153,-0.0651467,-0.599772,0.0193292,-0.102988,0.324003,-0.118188,0.0750268,0.44488,0.272573,31.635,95.013,0.025,-0.0928879,-0.860175,0.0323274,-0.00320025,0.00825477,-0.00181122,-0.198587,-0.156606,0.462473,0.071131,-0.320626,0.147283,-2.61524,6.57155,6.99337,0.071131,-0.320626,9.94103,,,,,,,
366.846,-179.904,14.1985,41.066,0.116028,-0.347961,-0.929327,-0.0425696,-0.0635316,-0.598875,0.0236866,-0.0349595,0.354489,-0.105691,0.0789235,0.44579,0.270495,31.62,94.997,0.025001,-0.0950725,-0.853784,0.0387175,-0.00184892,0.00876374,-0.00369451,-0.198101,-0.158741,0.462258,-0.0031183,-0.336705,0.157083,-2.43718,6.59173,7.05277,-0.0031183,-0.336705,9.95083,,,,,,,
366.871,-179.904,14.1985,41.066,0.116028,-0.347961,-0.929327,-0.0425696,-0.0635316,-0.598875,0.0236866,-0.0349595,0.354489,-0.105691,0.0789235,0.44579,0.270495,31.62,94.997,0.025001,-0.0950725,-0.853784,0.0387175,-0.00184892,0.00876374,-0.00369451,-0.198101,-0.158741,0.462258,-0.0031183,-0.336705,0.157083,-2.43718,6.59173,7.05277,-0.0031183,-0.336705,9.95083,,,,,,,
366.896,178.976,12.8482,40.6265,0.101841,-0.345897,-0.931536,-0.0471709,-0.0611028,-0.608752,0.0174406,-0.1646,0.330729,-0.103846,0.0877365,0.45168,0.269745,31.63,94.986,0.024999,-0.0911409,-0.868534,0.0340051,-0.00441049,0.007966,-0.00261877,-0.199421,-0.163635,0.466829,0.124402,-0.320906,0.169714,-2.34243,6.54802,7.14321,0.124402,-0.320906,9.96346,,,,,,,
366.922,177.844,11.4796,40.2074,0.0874667,-0.343703,-0.933552,-0.0519495,-0.0630454,-0.611284,0.0153523,-0.282129,0.26338,-0.0587094,0.0973322,0.440234,0.27148,31.62,94.986,0.025001,-0.0925442,-0.880228,0.0292237,-0.0049232,0.0076569,-0.00261164,-0.199128,-0.153574,0.462325,0.242398,-0.248342,0.178834,-2.23128,6.45932,7.27127,0.242398,-0.248342,9.97258,,,,,,,
366.947,177.844,11.4796,40.2074,0.0874667,-0.343703,-0.933552,-0.0519495,-0.0630454,-0.611284,0.0153523,-0.282129,0.26338,-0.0587094,0.0973322,0.440234,0.27148,31.62,94.986,0.025001,-0.0925442,-0.880228,0.0292237,-0.0049232,0.0076569,-0.00261164,-0.199128,-0.153574,0.462325,0.242398,-0.248342,0.178834,-2.23128,6.45932,7.27127,0.242398,-0.248342,9.97258,,,,,,,
366.972,177.296,10.8044,40.0041,0.0804077,-0.342527,-0.934486,-0.0542685,-0.0673888,-0.601882,0.0180847,-0.0817405,0.318327,-0.150345,0.101262,0.444201,0.269371,31.635,94.975,0.024999,-0.0988651,-0.859832,0.0309141,-0.00349743,0.00787184,-0.0031566,-0.199345,-0.157865,0.464187,0.0473853,-0.343104,0.103206,-1.91764,6.50255,7.21866,0.0473853,-0.343104,9.89695,,,,,,,
366.998,177.296,10.8044,40.0041,0.0804077,-0.342527,-0.934486,-0.0542685,-0.0673888,-0.601882,0.0180847,-0.0817405,0.318327,-0.150345,0.101262,0.444201,0.269371,31.635,94.975,0.024999,-0.0988651,-0.859832,0.0309141,-0.00349743,0.00787184,-0.0031566,-0.199345,-0.157865,0.464187,0.0473853,-0.343104,0.103206,-1.91764,6.50255,7.21866,0.0473853,-0.343104,9.89695,,,,,,,
367.023,176.25,9.46371,39.6056,0.0665264,-0.339988,-0.936241,-0.0586101,-0.0786405,-0.577895,0.026851,-0.163366,0.296474,-0.227533,0.10899,0.439918,0.267539,31.62,94.963,0.024999,-0.113448,-0.831842,0.0437646,-0.00395646,0.00744447,-0.00242517,-0.198121,-0.155756,0.462031,0.134125,-0.383063,0.040373,-1.77368,6.455,7.21538,0.134125,-0.383063,9.83412,,,,,,,
367.048,176.25,9.46371,39.6056,0.0665264,-0.339988,-0.936241,-0.0586101,-0.0786405,-0.577895,0.026851,-0.163366,0.296474,-0.227533,0.10899,0.439918,0.267539,31.62,94.963,0.024999,-0.113448,-0.831842,0.0437646,-0.00395646,0.00744447,-0.00242517,-0.198121,-0.155756,0.462031,0.134125,-0.383063,0.040373,-1.77368,6.455,7.21538,0.134125,-0.383063,9.83412,,,,,,,
367.073,175.265,8.13189,39.2202,0.0529058,-0.337247,-0.937842,-0.0625915,-0.0836687,-0.570271,0.0368388,-0.185111,0.263673,-0.246397,0.115851,0.444852,0.268967,31.62,94.963,0.024999,-0.121263,-0.816887,0.0573644,-0.00414128,0.00751858,-0.00251402,-0.197731,-0.158787,0.468345,0.156309,-0.374251,0.00225969,-1.57046,6.39402,7.26473,0.156309,-0.374251,9.79601,,,,,,,
367.099,174.334,6.78834,38.8363,0.039366,-0.334231,-0.93934,-0.0661903,-0.0939372,-0.559088,0.0521405,-0.00807725,0.303753,-0.0851464,0.123559,0.43855,0.270554,31.62,94.952,0.024999,-0.135582,-0.807296,0.0788254,-0.000325884,0.00813379,-0.00388009,-0.196206,-0.153319,0.467749,-0.0352537,-0.287926,0.124243,-1.16572,6.40233,7.49012,-0.0352537,-0.287926,9.91799,,,,,,,
367.124,174.334,6.78834,38.8363,0.039366,-0.334231,-0.93934,-0.0661903,-0.0939372,-0.559088,0.0521405,-0.00807725,0.303753,-0.0851464,0.123559,0.43855,0.270554,31.62,94.952,0.024999,-0.135582,-0.807296,0.0788254,-0.000325884,0.00813379,-0.00388009,-0.196206,-0.153319,0.467749,-0.0352537,-0.287926,0.124243,-1.16572,6.40233,7.49012,-0.0352537,-0.287926,9.91799,,,,,,,
367.149,173.891,6.11277,38.6401,0.032639,-0.332586,-0.940064,-0.0678326,-0.101984,-0.561585,0.0547365,-0.147353,0.286692,-0.103729,0.130358,0.438352,0.266365,31.64,94.956,0.025001,-0.14818,-0.800477,0.0863287,-0.00236156,0.0074863,-0.00273959,-0.198629,-0.155809,0.465151,0.104581,-0.301544,0.113131,-1.19025,6.3674,7.50251,0.104581,-0.301544,9.90688,,,,,,,
367.175,173.891,6.11277,38.6401,0.032639,-0.332586,-0.940064,-0.0678326,-0.101984,-0.561585,0.0547365,-0.147353,0.286692,-0.103729,0.130358,0.438352,0.266365,31.64,94.956,0.025001,-0.14818,-0.800477,0.0863287,-0.00236156,0.0074863,-0.00273959,-0.198629,-0.155809,0.465151,0.104581,-0.301544,0.113131,-1.19025,6.3674,7.50251,0.104581,-0.301544,9.90688,,,,,,,
367.2,172.978,4.72369,38.2378,0.0188225,-0.329022,-0.94144,-0.0712872,-0.110573,-0.599888,0.0533864,-0.0809199,0.295378,-0.0906956,0.134178,0.43214,0.266621,31.62,94.952,0.025001,-0.160381,-0.841934,0.0817907,-0.00212815,0.00755881,-0.00341691,-0.193017,-0.151947,0.464211,0.0356941,-0.294712,0.117865,-0.887441,6.33641,7.57566,0.0356941,-0.294712,9.91161,,,,,,,
367.225,171.993,3.22216,37.8327,0.00390558,-0.325125,-0.942675,-0.0751162,-0.121846,-0.647442,0.0513206,-0.0647695,0.309495,-0.116531,0.146806,0.43179,0.261595,31.62,94.941,0.025001,-0.174199,-0.908888,0.081778,-0.00230091,0.00753628,-0.00283821,-0.196541,-0.154709,0.462453,0.014586,-0.321078,0.10128,-0.615254,6.30707,7.60639,0.014586,-0.321078,9.89503,,,,,,,
367.25,171.993,3.22216,37.8327,0.00390558,-0.325125,-0.942675,-0.0751162,-0.121846,-0.647442,0.0513206,-0.0647695,0.309495,-0.116531,0.146806,0.43179,0.261595,31.62,94.941,0.025001,-0.174199,-0.908888,0.081778,-0.00230091,0.00753628,-0.00283821,-0.196541,-0.154709,0.462453,0.014586,-0.321078,0.10128,-0.615254,6.30707,7.60639,0.014586,-0.321078,9.89503,,,,,,,
367.276,170.916,1.59139,37.4091,-0.0122816,-0.320692,-0.943766,-0.0794428,-0.142712,-0.705919,0.0483292,-0.0967711,0.316196,-0.0053472,0.153608,0.431612,0.260805,31.62,94.918,0.025001,-0.198545,-0.992015,0.078452,-0.00273512,0.00748126,-0.00109552,-0.193608,-0.155783,0.464921,0.050201,-0.265667,0.190457,-0.368757,6.26362,7.771,0.050201,-0.265667,9.9842,,,,,,,
367.301,170.916,1.59139,37.4091,-0.0122816,-0.320692,-0.943766,-0.0794428,-0.142712,-0.705919,0.0483292,-0.0967711,0.316196,-0.0053472,0.153608,0.431612,0.260805,31.62,94.918,0.025001,-0.198545,-0.992015,0.078452,-0.00273512,0.00748126,-0.00109552,-0.193608,-0.155783,0.464921,0.050201,-0.265667,0.190457,-0.368757,6.26362,7.771,0.050201,-0.265667,9.9842,,,,,,,
367.326,170.339,0.718836,37.1808,-0.0209219,-0.318162,-0.944268,-0.0818096,-0.155857,-0.737092,0.0478839,-0.0847725,0.30715,0.0912139,0.16135,0.428368,0.262362,31.62,94.93,0.025,-0.218114,-1.04119,0.0767543,-0.0024261,0.00798803,0.000108315,-0.195505,-0.152088,0.465847,0.0485503,-0.200586,0.259337,-0.207642,6.22536,7.8936,0.0485503,-0.200586,10.0531,,,,,,,
367.351,170.339,0.718836,37.1808,-0.0209219,-0.318162,-0.944268,-0.0818096,-0.155857,-0.737092,0.0478839,-0.0847725,0.30715,0.0912139,0.16135,0.428368,0.262362,31.62,94.93,0.025,-0.218114,-1.04119,0.0767543,-0.0024261,0.00798803,0.000108315,-0.195505,-0.152088,0.465847,0.0485503,-0.200586,0.259337,-0.207642,6.22536,7.8936,0.0485503,-0.200586,10.0531,,,,,,,
367.377,169.148,-1.09676,36.674,-0.0387918,-0.312323,-0.945211,-0.0867561,-0.188597,-0.76367,0.0468237,-0.0919466,0.340708,-0.149168,0.171046,0.427032,0.2504,31.62,94.918,0.025,-0.26664,-1.09422,0.0759382,-0.00322525,0.0082874,-0.0020136,-0.195712,-0.158941,0.459073,0.023641,-0.373485,0.0820769,0.0955154,6.18907,7.70443,0.023641,-0.373485,9.87582,,,,,,,
367.402,167.92,-2.96411,36.1571,-0.0570927,-0.305907,-0.945883,-0.0920141,-0.198328,-0.805154,0.0369596,-0.0598843,0.355852,-0.0832568,0.181707,0.423736,0.255503,31.6175,94.918,0.024999,-0.284087,-1.13027,0.0625968,-0.00429066,0.00770165,-0.00324156,-0.194424,-0.154102,0.465084,-0.00471225,-0.343047,0.139444,0.446555,6.12644,7.81366,-0.00471225,-0.343047,9.93319,,,,,,,
367.427,167.92,-2.96411,36.1571,-0.0570927,-0.305907,-0.945883,-0.0920141,-0.198328,-0.805154,0.0369596,-0.0598843,0.355852,-0.0832568,0.181707,0.423736,0.255503,31.6175,94.918,0.024999,-0.284087,-1.13027,0.0625968,-0.00429066,0.00770165,-0.00324156,-0.194424,-0.154102,0.465084,-0.00471225,-0.343047,0.139444,0.446555,6.12644,7.81366,-0.00471225,-0.343047,9.93319,,,,,,,
367.453,166.632,-4.91909,35.6423,-0.0761657,-0.298931,-0.946204,-0.0976606,-0.226047,-0.809919,0.0368979,-0.156515,0.304047,-0.0539963,0.193424,0.428534,0.25491,31.635,94.907,0.025,-0.313379,-1.16308,0.0602592,-0.0040256,0.00746208,-0.00256963,-0.19555,-0.158806,0.471778,0.0984315,-0.309704,0.119382,0.683288,5.99007,7.87578,0.0984315,-0.309704,9.91313,,,,,,,
367.478,166.632,-4.91909,35.6423,-0.0761657,-0.298931,-0.946204,-0.0976606,-0.226047,-0.809919,0.0368979,-0.156515,0.304047,-0.0539963,0.193424,0.428534,0.25491,31.635,94.907,0.025,-0.313379,-1.16308,0.0602592,-0.0040256,0.00746208,-0.00256963,-0.19555,-0.158806,0.471778,0.0984315,-0.309704,0.119382,0.683288,5.99007,7.87578,0.0984315,-0.309704,9.91313,,,,,,,
367.503,165.995,-5.90699,35.3629,-0.0857037,-0.295074,-0.946305,-0.100466,-0.243136,-0.82618,0.0408363,-0.00728248,0.336265,-0.0309064,0.196247,0.421238,0.240397,31.62,94.907,0.025,-0.340769,-1.17004,0.0641354,-0.0018143,0.00813073,-0.000858412,-0.194946,-0.162029,0.457699,-0.0467481,-0.289402,0.167761,1.00063,5.97433,7.91352,-0.0467481,-0.289402,9.96151,,,,,,,
367.528,164.689,-7.99278,34.7858,-0.10564,-0.286678,-0.946247,-0.106173,-0.265597,-0.876668,0.0516284,-0.132317,0.336163,-0.191827,0.206887,0.415915,0.247786,31.62,94.907,0.025001,-0.37631,-1.24295,0.0790048,-0.00194311,0.00890172,-0.00325411,-0.191362,-0.1552,0.465273,0.0291678,-0.4077,0.0155079,1.22949,5.86932,7.77355,0.0291678,-0.4077,9.80925,,,,,,,
367.554,164.689,-7.99278,34.7858,-0.10564,-0.286678,-0.946247,-0.106173,-0.265597,-0.876668,0.0516284,-0.132317,0.336163,-0.191827,0.206887,0.415915,0.247786,31.62,94.907,0.025001,-0.37631,-1.24295,0.0790048,-0.00194311,0.00890172,-0.00325411,-0.191362,-0.1552,0.465273,0.0291678,-0.4077,0.0155079,1.22949,5.86932,7.77355,0.0291678,-0.4077,9.80925,,,,,,,
367.579,163.311,-10.2471,34.1979,-0.126952,-0.277361,-0.945712,-0.112175,-0.291377,-0.951508,0.057101,-0.197989,0.346424,0.0383623,0.221425,0.412459,0.242887,31.63,94.907,0.025001,-0.413593,-1.3381,0.0862898,-0.0032944,0.00899193,0.000985162,-0.193744,-0.155544,0.465204,0.149118,-0.321323,0.187605,1.54426,5.76323,8.00958,0.149118,-0.321323,9.98135,,,,,,,
367.604,163.311,-10.2471,34.1979,-0.126952,-0.277361,-0.945712,-0.112175,-0.291377,-0.951508,0.057101,-0.197989,0.346424,0.0383623,0.221425,0.412459,0.242887,31.63,94.907,0.025001,-0.413593,-1.3381,0.0862898,-0.0032944,0.00899193,0.000985162,-0.193744,-0.155544,0.465204,0.149118,-0.321323,0.187605,1.54426,5.76323,8.00958,0.149118,-0.321323,9.98135,,,,,,,
367.629,162.594,-11.4432,33.8999,-0.138158,-0.272315,-0.945234,-0.115284,-0.305671,-0.975519,0.0593398,-0.178397,0.380789,-0.0125374,0.227216,0.409222,0.237546,31.62,94.896,0.024999,-0.433719,-1.3819,0.0926663,-0.00374434,0.00938495,0.00147335,-0.193939,-0.156313,0.46203,0.108446,-0.372551,0.162568,1.76465,5.73461,7.95481,0.108446,-0.372551,9.95631,,,,,,,
367.655,162.594,-11.4432,33.8999,-0.138158,-0.272315,-0.945234,-0.115284,-0.305671,-0.975519,0.0593398,-0.178397,0.380789,-0.0125374,0.227216,0.409222,0.237546,31.62,94.896,0.024999,-0.433719,-1.3819,0.0926663,-0.00374434,0.00938495,0.00147335,-0.193939,-0.156313,0.46203,0.108446,-0.372551,0.162568,1.76465,5.73461,7.95481,0.108446,-0.372551,9.95631,,,,,,,
367.68,161.136,-13.9339,33.325,-0.161274,-0.261726,-0.943781,-0.121523,-0.313978,-1.00469,0.0739973,-0.100184,0.41257,-0.125568,0.237892,0.407914,0.234697,31.625,94.888,0.024999,-0.450947,-1.43648,0.108103,-0.00451626,0.00958683,-0.00208241,-0.191249,-0.158584,0.465128,-0.0140063,-0.432412,0.0940341,2.25817,5.63481,7.81697,-0.0140063,-0.432412,9.88778,,,,,,,
367.705,159.739,-16.4968,32.7875,-0.184617,-0.250754,-0.941741,-0.127135,-0.314891,-1.0063,0.103746,-0.167619,0.377975,-0.0489477,0.250429,0.399404,0.228617,31.62,94.896,0.024999,-0.452262,-1.43749,0.149883,-0.00382868,0.00980514,-0.00234148,-0.189851,-0.15587,0.462779,0.0751205,-0.394701,0.109204,2.61344,5.46321,7.84558,0.0751205,-0.394701,9.90295,,,,,,,
367.73,159.739,-16.4968,32.7875,-0.184617,-0.250754,-0.941741,-0.127135,-0.314891,-1.0063,0.103746,-0.167619,0.377975,-0.0489477,0.250429,0.399404,0.228617,31.62,94.896,0.024999,-0.452262,-1.43749,0.149883,-0.00382868,0.00980514,-0.00234148,-0.189851,-0.15587,0.462779,0.0751205,-0.394701,0.109204,2.61344,5.46321,7.84558,0.0751205,-0.394701,9.90295,,,,,,,
367.756,158.409,-19.1057,32.2846,-0.207946,-0.239457,-0.939131,-0.132103,-0.315273,-1.00098,0.127826,-0.172329,0.416027,-0.184038,0.263939,0.391834,0.213511,31.635,94.884,0.024999,-0.45521,-1.4371,0.181972,-0.00432221,0.00991317,-0.00376366,-0.193202,-0.157149,0.454711,0.00609086,-0.48638,0.00654861,3.03328,5.35896,7.63958,0.00609086,-0.48638,9.80029,,,,,,,
367.781,158.409,-19.1057,32.2846,-0.207946,-0.239457,-0.939131,-0.132103,-0.315273,-1.00098,0.127826,-0.172329,0.416027,-0.184038,0.263939,0.391834,0.213511,31.635,94.884,0.024999,-0.45521,-1.4371,0.181972,-0.00432221,0.00991317,-0.00376366,-0.193202,-0.157149,0.454711,0.00609086,-0.48638,0.00654861,3.03328,5.35896,7.63958,0.00609086,-0.48638,9.80029,,,,,,,
367.806,157.778,-20.415,32.0466,-0.219488,-0.233743,-0.937633,-0.134294,-0.312461,-0.988553,0.140409,-0.208345,0.394853,-0.230916,0.271673,0.387591,0.218476,31.62,94.884,0.025001,-0.451785,-1.42201,0.200182,-0.00503653,0.00957932,-0.00620658,-0.189898,-0.15208,0.461059,0.0122903,-0.498915,-0.059756,3.20788,5.2651,7.54903,0.0122903,-0.498915,9.73399,,,,,,,
367.831,156.58,-23.0471,31.5969,-0.242367,-0.2222,-0.934245,-0.1381,-0.312185,-0.979478,0.166551,-0.202317,0.402845,-0.0540399,0.284309,0.388234,0.208909,31.62,94.873,0.025001,-0.44862,-1.40363,0.236259,-0.00565313,0.00963539,-0.00347841,-0.190999,-0.158354,0.462216,0.0824819,-0.440515,0.0726608,3.63182,5.12462,7.62201,0.0824819,-0.440515,9.86641,,,,,,,
367.857,156.58,-23.0471,31.5969,-0.242367,-0.2222,-0.934245,-0.1381,-0.312185,-0.979478,0.166551,-0.202317,0.402845,-0.0540399,0.284309,0.388234,0.208909,31.62,94.873,0.025001,-0.44862,-1.40363,0.236259,-0.00565313,0.00963539,-0.00347841,-0.190999,-0.158354,0.462216,0.0824819,-0.440515,0.0726608,3.63182,5.12462,7.62201,0.0824819,-0.440515,9.86641,,,,,,,
367.882,155.537,-25.6353,31.0881,-0.264242,-0.210087,-0.930687,-0.140926,-0.338212,-0.912168,0.199323,-0.317901,0.371764,0.0314664,0.299787,0.381704,0.205223,31.63,94.884,0.025,-0.481575,-1.32274,0.286124,-0.00758433,0.00897952,0.000469047,-0.19067,-0.155956,0.465842,0.221976,-0.432905,0.0598243,3.91927,4.93104,7.59301,0.221976,-0.432905,9.85357,,,,,,,
367.907,155.537,-25.6353,31.0881,-0.264242,-0.210087,-0.930687,-0.140926,-0.338212,-0.912168,0.199323,-0.317901,0.371764,0.0314664,0.299787,0.381704,0.205223,31.63,94.884,0.025,-0.481575,-1.32274,0.286124,-0.00758433,0.00897952,0.000469047,-0.19067,-0.155956,0.465842,0.221976,-0.432905,0.0598243,3.91927,4.93104,7.59301,0.221976,-0.432905,9.85357,,,,,,,
367.932,154.737,-28.1089,30.4662,-0.284379,-0.197473,-0.927281,-0.14242,-0.344634,-0.809914,0.253987,-0.195583,0.445418,-0.246658,0.310411,0.376287,0.196749,31.62,94.884,0.025001,-0.494721,-1.20592,0.352939,-0.00418664,0.0105592,-0.00495726,-0.189906,-0.158706,0.464118,-0.0555665,-0.536588,-0.0804714,4.41874,4.82545,7.1992,-0.0555665,-0.536588,9.71327,,,,,,,
367.958,154.737,-28.1089,30.4662,-0.284379,-0.197473,-0.927281,-0.14242,-0.344634,-0.809914,0.253987,-0.195583,0.445418,-0.246658,0.310411,0.376287,0.196749,31.62,94.884,0.025001,-0.494721,-1.20592,0.352939,-0.00418664,0.0105592,-0.00495726,-0.189906,-0.158706,0.464118,-0.0555665,-0.536588,-0.0804714,4.41874,4.82545,7.1992,-0.0555665,-0.536588,9.71327,,,,,,,
367.983,154.501,-29.2381,30.0731,-0.29314,-0.191054,-0.925904,-0.142366,-0.355194,-0.715327,0.285059,-0.138875,0.443843,-0.285081,0.314213,0.369014,0.190217,31.62,94.884,0.024999,-0.507379,-1.07732,0.396611,-0.00442948,0.0101901,-0.0061482,-0.189821,-0.157663,0.45847,-0.12818,-0.522683,-0.0890313,4.64479,4.72628,7.11051,-0.12818,-0.522683,9.70471,,,,,,,
368.008,154.425,-31.2096,29.0402,-0.307397,-0.177852,-0.92418,-0.140595,-0.386529,-0.522487,0.34434,-0.255826,0.388542,-0.146506,0.325809,0.362615,0.191999,31.62,94.862,0.025,-0.548641,-0.801229,0.486316,-0.00480491,0.0103325,-0.00321684,-0.187246,-0.158526,0.46294,0.0483099,-0.478553,-0.0808,4.81901,4.45462,7.17678,0.0483099,-0.478553,9.71295,,,,,,,
368.033,154.425,-31.2096,29.0402,-0.307397,-0.177852,-0.92418,-0.140595,-0.386529,-0.522487,0.34434,-0.255826,0.388542,-0.146506,0.325809,0.362615,0.191999,31.62,94.862,0.025,-0.548641,-0.801229,0.486316,-0.00480491,0.0103325,-0.00321684,-0.187246,-0.158526,0.46294,0.0483099,-0.478553,-0.0808,4.81901,4.45462,7.17678,0.0483099,-0.478553,9.71295,,,,,,,
368.059,154.847,-32.7998,27.6575,-0.317505,-0.164099,-0.923853,-0.136961,-0.413447,-0.356303,0.395096,-0.15358,0.414343,-0.0993914,0.335401,0.351155,0.191467,31.62,94.873,0.024999,-0.59026,-0.55458,0.558454,-0.00374877,0.0106406,-0.00261398,-0.186535,-0.157838,0.461253,-0.00760129,-0.452844,0.00447381,5.15174,4.23566,7.19229,-0.00760129,-0.452844,9.79822,,,,,,,
