Timestamp,Yaw,Pitch,Roll,Qtn[0], Qtn[1], Qtn[2], Qtn[3],Rate X,Rate Y,Rate Z,Accel X,Accel Y,Accel Z,Mag X,Mag Y,Mag Z,Temp,Pres,dTime,dTheta X,dTheta Y,dTheta Z,dVel X,dVel Y,dVel Z,MagNed X,MagNed Y,MagNed Z,AccelNed X,AccelNed Y,AccelNed Z,LinearAccel X,LinearAccel Y,LinearAccel Z,LinearAccelNed X,LinearAccelNed Y,LinearAccelNed Z,Amplitude,Distance,Light 1,Light 2,Light 3,Light 4,Comments
0.495091,0,0,0,0,0,0,0,0,0,0,0,0,0,0,0,0,0,0,0,0,0,0,0,0,0,0,0,0,0,0,0,0,0,0,0,0,0,
0.520478,-96.6513,-50.8872,55.7065,0.00320826,0.567688,0.462888,-0.680775,0.00190546,0.00266291,-0.0116769,-7.57449,-5.11726,-3.5154,0.419967,0.0848742,0.162946,23.08,99.054,0.025001,-0.000807208,0.00566835,-0.00549185,-0.190796,-0.128122,-0.0862668,-0.102349,-0.128302,0.428007,0.0164325,-0.0409373,-9.79364,0.0245365,-0.0129196,-0.0343067,0.0164325,-0.0409373,0.000110626,
0.545706,-96.6513,-50.8872,55.7065,0.00320826,0.567688,0.462888,-0.680775,0.00190546,0.00266291,-0.0116769,-7.57449,-5.11726,-3.5154,0.419967,0.0848742,0.162946,23.08,99.054,0.025001,-0.000807208,0.00566835,-0.00549185,-0.190796,-0.128122,-0.0862668,-0.102349,-0.128302,0.428007,0.0164325,-0.0409373,-9.79364,0.0245365,-0.0129196,-0.0343067,0.0164325,-0.0409373,0.000110626,
0.571094,-96.7392,-50.9125,55.7861,0.00333209,0.568091,0.462891,-0.680436,0.0077615,-0.0183771,0.00245296,-7.5707,-5.08872,-3.55698,0.419928,0.0818949,0.160774,23.08,99.065,0.025001,0.00908272,-0.0336833,0.0118499,-0.18834,-0.127379,-0.0879758,-0.10297,-0.130855,0.425639,0.0742488,-0.0543588,-9.79052,0.0310488,0.0176733,-0.0848635,0.0742488,-0.0543588,0.00322819,
0.596429,-96.7392,-50.9125,55.7861,0.00333209,0.568091,0.462891,-0.680436,0.0077615,-0.0183771,0.00245296,-7.5707,-5.08872,-3.55698,0.419928,0.0818949,0.160774,23.08,99.065,0.025001,0.00908272,-0.0336833,0.0118499,-0.18834,-0.127379,-0.0879758,-0.10297,-0.130855,0.425639,0.0742488,-0.0543588,-9.79052,0.0310488,0.0176733,-0.0848635,0.0742488,-0.0543588,0.00322819,
0.621642,-96.7587,-50.9215,55.801,0.00339723,0.56818,0.462888,-0.680363,-0.00138008,-0.000287894,-0.00139702,-7.59028,-5.08926,-3.62617,0.419002,0.0829205,0.162916,23.08,99.054,0.025001,-0.00783666,0.00736545,0.00915018,-0.190004,-0.127387,-0.0876848,-0.103981,-0.128464,0.426222,0.130043,-0.0808569,-9.83049,0.0124437,0.0170471,-0.156057,0.130043,-0.0808569,-0.036746,
0.646855,-96.8433,-50.9509,55.8956,0.00344301,0.568657,0.462777,-0.680041,0.0175059,-0.032606,0.00228393,-7.53693,-5.07059,-3.3823,0.419949,0.0838727,0.160755,23.08,99.054,0.025001,0.0208832,-0.0399912,0.00888874,-0.18896,-0.126989,-0.086652,-0.102223,-0.12937,0.42667,-0.0404284,0.0197014,-9.693,0.068951,0.0382105,0.0771875,-0.0404284,0.0197014,0.100745,
0.672083,-96.8433,-50.9509,55.8956,0.00344301,0.568657,0.462777,-0.680041,0.0175059,-0.032606,0.00228393,-7.53693,-5.07059,-3.3823,0.419949,0.0838727,0.160755,23.08,99.054,0.025001,0.0208832,-0.0399912,0.00888874,-0.18896,-0.126989,-0.086652,-0.102223,-0.12937,0.42667,-0.0404284,0.0197014,-9.693,0.068951,0.0382105,0.0771875,-0.0404284,0.0197014,0.100745,
0.697336,-96.8816,-50.9702,55.9327,0.00353583,0.568869,0.462725,-0.679898,-0.00299209,-0.00675733,0.001215,-7.62468,-5.10685,-3.1998,0.419923,0.0818888,0.159673,23.08,99.054,0.024999,0.00671574,-0.0276707,0.0120174,-0.189619,-0.127095,-0.0812265,-0.102821,-0.130882,0.425246,-0.193805,0.147086,-9.71572,-0.016722,0.00207391,0.254948,-0.193805,0.147086,0.0780249,
0.72255,-96.8816,-50.9702,55.9327,0.00353583,0.568869,0.462725,-0.679898,-0.00299209,-0.00675733,0.001215,-7.62468,-5.10685,-3.1998,0.419923,0.0818888,0.159673,23.08,99.054,0.024999,0.00671574,-0.0276707,0.0120174,-0.189619,-0.127095,-0.0812265,-0.102821,-0.130882,0.425246,-0.193805,0.147086,-9.71572,-0.016722,0.00207391,0.254948,-0.193805,0.147086,0.0780249,
0.747758,-96.8287,-50.9199,55.8371,0.00352052,0.568319,0.463133,-0.680081,-0.0182376,0.0198349,-0.00946535,-7.45509,-5.03567,-3.54145,0.418015,0.0789891,0.162904,23.08,99.043,0.024999,-0.0333493,0.0413035,-0.00661272,-0.188018,-0.126885,-0.0874363,-0.106653,-0.130013,0.423362,0.0925152,-0.090161,-9.66755,0.147461,0.0729942,-0.0744334,0.0925152,-0.090161,0.126195,
0.772983,-96.8342,-50.9408,55.8199,0.0037828,0.568318,0.463148,-0.680069,-0.00359842,-0.0128708,0.0136381,-7.55719,-5.1241,-3.42252,0.419922,0.0818825,0.158573,23.08,99.054,0.024999,-0.00838682,-0.0175843,0.0256197,-0.187695,-0.128128,-0.0865942,-0.101573,-0.131678,0.424887,-0.0496912,-0.0168482,-9.75082,0.0476024,-0.0187569,0.0444781,-0.0496912,-0.0168482,0.0429306,
0.798226,-96.8342,-50.9408,55.8199,0.0037828,0.568318,0.463148,-0.680069,-0.00359842,-0.0128708,0.0136381,-7.55719,-5.1241,-3.42252,0.419922,0.0818825,0.158573,23.08,99.054,0.024999,-0.00838682,-0.0175843,0.0256197,-0.187695,-0.128128,-0.0865942,-0.101573,-0.131678,0.424887,-0.0496912,-0.0168482,-9.75082,0.0476024,-0.0187569,0.0444781,-0.0496912,-0.0168482,0.0429306,
0.823485,-96.7898,-50.935,55.7524,0.00392608,0.568027,0.463248,-0.680243,-0.0124247,0.035465,-0.0044927,-7.71305,-5.08238,-3.53784,0.419007,0.0838965,0.160707,23.065,99.06,0.024999,-0.0200379,0.0385571,0.00819736,-0.19335,-0.127522,-0.0871477,-0.101578,-0.128887,0.426031,0.0700285,0.0450283,-9.89096,-0.108876,0.0195058,-0.0644032,0.0700285,0.0450283,-0.0972147,
0.848714,-96.7898,-50.935,55.7524,0.00392608,0.568027,0.463248,-0.680243,-0.0124247,0.035465,-0.0044927,-7.71305,-5.08238,-3.53784,0.419007,0.0838965,0.160707,23.065,99.06,0.024999,-0.0200379,0.0385571,0.00819736,-0.19335,-0.127522,-0.0871477,-0.101578,-0.128887,0.426031,0.0700285,0.0450283,-9.89096,-0.108876,0.0195058,-0.0644032,0.0700285,0.0450283,-0.0972147,
0.874006,-96.751,-50.9073,55.7007,0.0038642,0.567728,0.46341,-0.680383,-0.00931895,0.0136815,-0.0048027,-7.57813,-5.10351,-3.58173,0.419904,0.0789475,0.164102,23.08,99.054,0.025001,-0.0202361,0.0400151,0.00149116,-0.19031,-0.127181,-0.088352,-0.107185,-0.130699,0.425336,0.0753429,-0.0694214,-9.81286,0.0230518,-0.00171891,-0.101621,0.0753429,-0.0694214,-0.0191145,
0.899318,-96.751,-50.9073,55.7007,0.0038642,0.567728,0.46341,-0.680383,-0.00931895,0.0136815,-0.0048027,-7.57813,-5.10351,-3.58173,0.419904,0.0789475,0.164102,23.08,99.054,0.025001,-0.0202361,0.0400151,0.00149116,-0.19031,-0.127181,-0.088352,-0.107185,-0.130699,0.425336,0.0753429,-0.0694214,-9.81286,0.0230518,-0.00171891,-0.101621,0.0753429,-0.0694214,-0.0191145,
0.924565,-96.7779,-50.9086,55.7258,0.00385649,0.567833,0.463438,-0.680276,0.00529555,-0.00957184,-0.00548544,-7.66986,-5.10438,-3.4772,0.418986,0.0819188,0.160725,23.08,99.054,0.025,0.00429797,-0.0154714,0.00364601,-0.191369,-0.127686,-0.0878865,-0.102766,-0.130186,0.424951,0.00389028,0.0425249,-9.84737,-0.0685335,-0.00121258,0.000572214,0.00389028,0.0425249,-0.0536203,
0.949791,-96.7986,-50.8847,55.7408,0.00371767,0.567814,0.463605,-0.68018,-0.00182275,0.000218155,-0.00835643,-7.4826,-5.09296,-3.43024,0.420914,0.0858265,0.160785,23.08,99.054,0.025001,-0.00436481,0.00365421,-0.00471784,-0.188597,-0.127414,-0.0854288,-0.100586,-0.129286,0.428432,-0.036844,-0.0394176,-9.67942,0.116148,0.0137482,0.0479832,-0.036844,-0.0394176,0.114326,
0.975144,-96.7986,-50.8847,55.7408,0.00371767,0.567814,0.463605,-0.68018,-0.00182275,0.000218155,-0.00835643,-7.4826,-5.09296,-3.43024,0.420914,0.0858265,0.160785,23.08,99.054,0.025001,-0.00436481,0.00365421,-0.00471784,-0.188597,-0.127414,-0.0854288,-0.100586,-0.129286,0.428432,-0.036844,-0.0394176,-9.67942,0.116148,0.0137482,0.0479832,-0.036844,-0.0394176,0.114326,
1.00039,-96.8165,-50.8809,55.7423,0.00377409,0.567806,0.463723,-0.680105,-0.00333049,-0.0050815,0.000765217,-7.5255,-5.07632,-3.4789,0.419073,0.0898363,0.161751,23.09,99.043,0.024999,-0.00896597,-0.00232988,0.0076918,-0.188253,-0.127094,-0.0865206,-0.0986924,-0.125332,0.429428,0.0145564,-0.0283104,-9.72132,0.0728378,0.0308794,-0.000521678,0.0145564,-0.0283104,0.0724277,
1.02561,-96.8165,-50.8809,55.7423,0.00377409,0.567806,0.463723,-0.680105,-0.00333049,-0.0050815,0.000765217,-7.5255,-5.07632,-3.4789,0.419073,0.0898363,0.161751,23.09,99.043,0.024999,-0.00896597,-0.00232988,0.0076918,-0.188253,-0.127094,-0.0865206,-0.0986924,-0.125332,0.429428,0.0145564,-0.0283104,-9.72132,0.0728378,0.0308794,-0.000521678,0.0145564,-0.0283104,0.0724277,
1.05085,-96.8234,-50.8812,55.7386,0.00383222,0.567792,0.46378,-0.680077,-0.00385913,0.00256375,-0.0020371,-7.59283,-5.07384,-3.49184,0.419032,0.0868506,0.158478,23.08,99.043,0.025,-0.00879305,-0.00051441,0.00776693,-0.189442,-0.126866,-0.0871945,-0.0980737,-0.128731,0.426681,0.0307255,0.00839019,-9.77685,0.00554871,0.0331064,-0.013156,0.0307255,0.00839019,0.0168953,
1.08393,-96.825,-50.8662,55.7265,0.00381543,0.567694,0.463923,-0.680062,0.00218118,-0.00373874,-0.00343899,-7.56077,-5.10357,-3.45634,0.419084,0.0908253,0.161742,23.08,99.043,0.025,-0.00320037,0.00390469,0.00316959,-0.189431,-0.127564,-0.0879119,-0.0980424,-0.124863,0.429928,-0.0188336,-0.00704765,-9.75487,0.0359846,0.00429652,0.0245441,-0.0188336,-0.00704765,0.0388765,
1.10924,-96.825,-50.8662,55.7265,0.00381543,0.567694,0.463923,-0.680062,0.00218118,-0.00373874,-0.00343899,-7.56077,-5.10357,-3.45634,0.419084,0.0908253,0.161742,23.08,99.043,0.025,-0.00320037,0.00390469,0.00316959,-0.189431,-0.127564,-0.0879119,-0.0980424,-0.124863,0.429928,-0.0188336,-0.00704765,-9.75487,0.0359846,0.00429652,0.0245441,-0.0188336,-0.00704765,0.0388765,
1.13448,-96.8618,-50.8699,55.7458,0.00390685,0.567783,0.464028,-0.679916,-0.00863158,-0.00273468,-0.00454338,-7.59123,-5.12934,-3.34934,0.422769,0.0828181,0.162009,23.08,99.054,0.025,-0.00901399,-0.00577982,0.00403716,-0.190069,-0.128183,-0.0841818,-0.103749,-0.131512,0.428696,-0.113159,0.0534531,-9.75394,0.00591937,-0.0207086,0.129549,-0.113159,0.0534531,0.0398073,
1.15973,-96.8618,-50.8699,55.7458,0.00390685,0.567783,0.464028,-0.679916,-0.00863158,-0.00273468,-0.00454338,-7.59123,-5.12934,-3.34934,0.422769,0.0828181,0.162009,23.08,99.054,0.025,-0.00901399,-0.00577982,0.00403716,-0.190069,-0.128183,-0.0841818,-0.103749,-0.131512,0.428696,-0.113159,0.0534531,-9.75394,0.00591937,-0.0207086,0.129549,-0.113159,0.0534531,0.0398073,
1.18506,-96.8592,-50.8586,55.7284,0.00392597,0.567675,0.464155,-0.679919,-0.0102465,0.00971252,-0.00584251,-7.55617,-5.06056,-3.46768,0.420885,0.0828663,0.161913,23.08,99.054,0.025001,-0.0172672,0.0100297,0.00091549,-0.189893,-0.127319,-0.0866564,-0.103456,-0.130429,0.427215,0.0172164,0.0097729,-9.73291,0.0397617,0.0482399,0.0135999,0.0172164,0.0097729,0.0608368,
1.21026,-96.8424,-50.839,55.6754,0.00403191,0.567396,0.464414,-0.679975,-0.0142371,0.00581934,0.00120411,-7.53401,-5.10564,-3.48035,0.420966,0.0907643,0.159639,23.08,99.054,0.025,-0.0235732,0.0118192,0.0077173,-0.187803,-0.127124,-0.0863504,-0.0965162,-0.127331,0.430589,-0.00864267,-0.0325137,-9.74375,0.0598046,0.00209048,0.00712745,-0.00864267,-0.0325137,0.0499992,
1.23551,-96.8424,-50.839,55.6754,0.00403191,0.567396,0.464414,-0.679975,-0.0142371,0.00581934,0.00120411,-7.53401,-5.10564,-3.48035,0.420966,0.0907643,0.159639,23.08,99.054,0.025,-0.0235732,0.0118192,0.0077173,-0.187803,-0.127124,-0.0863504,-0.0965162,-0.127331,0.430589,-0.00864267,-0.0325137,-9.74375,0.0598046,0.00209048,0.00712745,-0.00864267,-0.0325137,0.0499992,
1.26076,-96.8221,-50.8379,55.6153,0.00428182,0.567149,0.464596,-0.680054,-0.0112639,-0.00254477,0.00323778,-7.70502,-5.15634,-3.59014,0.418094,0.085911,0.162841,23.08,99.043,0.025001,-0.021744,0.00235918,0.0137155,-0.190862,-0.128297,-0.0882547,-0.101625,-0.12658,0.427026,0.0497556,-0.0116481,-9.94191,-0.111312,-0.052157,-0.0972325,0.0497556,-0.0116481,-0.148168,
1.28601,-96.8221,-50.8379,55.6153,0.00428182,0.567149,0.464596,-0.680054,-0.0112639,-0.00254477,0.00323778,-7.70502,-5.15634,-3.59014,0.418094,0.085911,0.162841,23.08,99.043,0.025001,-0.021744,0.00235918,0.0137155,-0.190862,-0.128297,-0.0882547,-0.101625,-0.12658,0.427026,0.0497556,-0.0116481,-9.94191,-0.111312,-0.052157,-0.0972325,0.0497556,-0.0116481,-0.148168,
1.31122,-96.8398,-50.8078,55.6107,0.0042039,0.56703,0.464872,-0.679965,0.000281368,-0.00162832,-0.0164166,-7.583,-5.10175,-3.53835,0.420916,0.084863,0.165195,23.08,99.054,0.025001,-0.00752597,0.0100471,-0.0138548,-0.191692,-0.127938,-0.0886013,-0.104363,-0.127879,0.429438,0.0357323,-0.0243757,-9.8004,0.00744791,0.00545096,-0.0427792,0.0357323,-0.0243757,-0.00665379,
1.33646,-96.8892,-50.8068,55.6527,0.00419333,0.567195,0.464963,-0.679766,0.00252352,-0.0185169,-0.00777976,-7.44664,-5.08862,-3.29806,0.420912,0.0848565,0.164095,23.08,99.043,0.024999,0.00202295,-0.0218843,-0.00909106,-0.186303,-0.126869,-0.0844794,-0.103758,-0.128419,0.428996,-0.146086,0.02525,-9.60217,0.143705,0.0212441,0.193846,-0.146086,0.02525,0.191573,
1.36167,-96.8892,-50.8068,55.6527,0.00419333,0.567195,0.464963,-0.679766,0.00252352,-0.0185169,-0.00777976,-7.44664,-5.08862,-3.29806,0.420912,0.0848565,0.164095,23.08,99.043,0.024999,0.00202295,-0.0218843,-0.00909106,-0.186303,-0.126869,-0.0844794,-0.103758,-0.128419,0.428996,-0.146086,0.02525,-9.60217,0.143705,0.0212441,0.193846,-0.146086,0.02525,0.191573,
1.38695,-96.8857,-50.7922,55.6111,0.0043296,0.566978,0.465219,-0.679771,-0.0248868,0.025621,0.00549363,-7.39684,-5.07217,-3.34408,0.418015,0.0799457,0.157396,23.08,99.054,0.025,-0.0277733,0.0253258,0.0094852,-0.185053,-0.126555,-0.0837248,-0.101415,-0.133039,0.421802,-0.108144,-0.0181987,-9.57136,0.191932,0.0367554,0.152615,-0.108144,-0.0181987,0.222383,
1.41222,-96.8857,-50.7922,55.6111,0.0043296,0.566978,0.465219,-0.679771,-0.0248868,0.025621,0.00549363,-7.39684,-5.07217,-3.34408,0.418015,0.0799457,0.157396,23.08,99.054,0.025,-0.0277733,0.0253258,0.0094852,-0.185053,-0.126555,-0.0837248,-0.101415,-0.133039,0.421802,-0.108144,-0.0181987,-9.57136,0.191932,0.0367554,0.152615,-0.108144,-0.0181987,0.222383,
1.43753,-96.788,-50.7982,55.468,0.00473346,0.566421,0.465318,-0.680165,-0.00943195,0.00292321,0.0186614,-7.60931,-5.12807,-3.72058,0.418069,0.0839269,0.161759,23.08,99.054,0.024999,-0.0275056,0.0174402,0.0358208,-0.188885,-0.128196,-0.0924125,-0.101584,-0.128501,0.425629,0.145357,-0.116583,-9.89984,-0.0199024,-0.0285455,-0.211578,0.145357,-0.116583,-0.106092,
1.46274,-96.788,-50.7982,55.468,0.00473346,0.566421,0.465318,-0.680165,-0.00943195,0.00292321,0.0186614,-7.60931,-5.12807,-3.72058,0.418069,0.0839269,0.161759,23.08,99.054,0.024999,-0.0275056,0.0174402,0.0358208,-0.188885,-0.128196,-0.0924125,-0.101584,-0.128501,0.425629,0.145357,-0.116583,-9.89984,-0.0199024,-0.0285455,-0.211578,0.145357,-0.116583,-0.106092,
1.48799,-96.7855,-50.8347,55.4695,0.00494511,0.566549,0.465116,-0.680195,0.00160631,-0.00755936,0.00688239,-7.71815,-5.15618,-3.33074,0.418103,0.0868998,0.162831,23.08,99.043,0.024999,0.00133311,-0.008956,0.0216708,-0.192492,-0.12837,-0.0857475,-0.100477,-0.126,0.427674,-0.16371,0.137522,-9.85922,-0.124791,-0.0605539,0.175385,-0.16371,0.137522,-0.0654726,
1.51326,-96.7807,-50.8329,55.4592,0.00497128,0.566501,0.465147,-0.680213,-0.00831499,0.0112682,-0.00170137,-7.68234,-5.1473,-3.42508,0.418053,0.0819619,0.163978,23.08,99.043,0.025001,-0.00942403,0.0054869,0.0112424,-0.192833,-0.12867,-0.0848791,-0.104464,-0.12817,0.425482,-0.089514,0.0701956,-9.86059,-0.0891768,-0.0521093,0.0821032,-0.089514,0.0701956,-0.0668478,
1.5386,-96.7807,-50.8329,55.4592,0.00497128,0.566501,0.465147,-0.680213,-0.00831499,0.0112682,-0.00170137,-7.68234,-5.1473,-3.42508,0.418053,0.0819619,0.163978,23.08,99.043,0.025001,-0.00942403,0.0054869,0.0112424,-0.192833,-0.12867,-0.0848791,-0.104464,-0.12817,0.425482,-0.089514,0.0701956,-9.86059,-0.0891768,-0.0521093,0.0821032,-0.089514,0.0701956,-0.0668478,
1.56383,-96.7709,-50.8051,55.4497,0.00480178,0.56637,0.465273,-0.680237,0.0113774,-0.0131043,-0.00206615,-7.54773,-5.1086,-3.65905,0.417148,0.0859283,0.161693,23.08,99.043,0.024999,0.00452095,-0.00432899,0.00208801,-0.187994,-0.127079,-0.0917859,-0.100089,-0.126788,0.425967,0.103938,-0.112302,-9.81994,0.0424306,-0.0109521,-0.148932,0.103938,-0.112302,-0.0261946,
1.58909,-96.7709,-50.8051,55.4497,0.00480178,0.56637,0.465273,-0.680237,0.0113774,-0.0131043,-0.00206615,-7.54773,-5.1086,-3.65905,0.417148,0.0859283,0.161693,23.08,99.043,0.024999,0.00452095,-0.00432899,0.00208801,-0.187994,-0.127079,-0.0917859,-0.100089,-0.126788,0.425967,0.103938,-0.112302,-9.81994,0.0424306,-0.0109521,-0.148932,0.103938,-0.112302,-0.0261946,
1.61432,-96.8462,-50.8281,55.5548,0.00469718,0.56687,0.465087,-0.679949,0.0180653,-0.0157161,-0.00103366,-7.55966,-5.08025,-3.40757,0.417074,0.079006,0.161758,23.08,99.043,0.025001,0.0249745,-0.0229577,0.00732055,-0.189616,-0.127238,-0.087016,-0.105004,-0.130416,0.422284,-0.0589974,0.0402172,-9.72439,0.0329858,0.0213142,0.091463,-0.0589974,0.0402172,0.0693521,
1.63951,-96.8725,-50.8361,55.5974,0.00462492,0.567069,0.464992,-0.679848,0.00619903,0.00435643,0.00100096,-7.54858,-5.04132,-3.52474,0.419056,0.0878581,0.161771,23.08,99.054,0.025,0.00640723,0.00050543,0.00911777,-0.18834,-0.126981,-0.0873752,-0.0996954,-0.126558,0.428417,0.0591991,-0.0090642,-9.73736,0.0449266,0.0619754,-0.0301083,0.0591991,-0.0090642,0.0563841,
1.66471,-96.8725,-50.8361,55.5974,0.00462492,0.567069,0.464992,-0.679848,0.00619903,0.00435643,0.00100096,-7.54858,-5.04132,-3.52474,0.419056,0.0878581,0.161771,23.08,99.054,0.025,0.00640723,0.00050543,0.00911777,-0.18834,-0.126981,-0.0873752,-0.0996954,-0.126558,0.428417,0.0591991,-0.0090642,-9.73736,0.0449266,0.0619754,-0.0301083,0.0591991,-0.0090642,0.0563841,
1.69012,-96.8476,-50.8231,55.5835,0.00450166,0.56697,0.464977,-0.679942,0.00481845,0.0179665,-0.000459183,-7.53889,-5.07819,-3.51328,0.420872,0.080901,0.164132,23.08,99.043,0.025,0.00430069,0.0214839,0.00818455,-0.189028,-0.126903,-0.0878782,-0.105993,-0.130515,0.427023,0.0249586,-0.0275735,-9.74498,0.0532165,0.0256725,-0.0164348,0.0249586,-0.0275735,0.0487642,
1.71538,-96.8476,-50.8231,55.5835,0.00450166,0.56697,0.464977,-0.679942,0.00481845,0.0179665,-0.000459183,-7.53889,-5.07819,-3.51328,0.420872,0.080901,0.164132,23.08,99.043,0.025,0.00430069,0.0214839,0.00818455,-0.189028,-0.126903,-0.0878782,-0.105993,-0.130515,0.427023,0.0249586,-0.0275735,-9.74498,0.0532165,0.0256725,-0.0164348,0.0249586,-0.0275735,0.0487642,
1.74062,-96.837,-50.8233,55.5949,0.00438244,0.567018,0.464857,-0.679985,0.0126939,-0.0108518,0.00322681,-7.6382,-5.0989,-3.60342,0.418942,0.0769866,0.162973,23.08,99.054,0.025,0.0119436,-0.00700946,0.0137421,-0.19014,-0.1276,-0.0885918,-0.107462,-0.132173,0.423063,0.0895941,-0.0252652,-9.86493,-0.0460728,0.00563942,-0.107602,0.0895941,-0.0252652,-0.0711842,
1.76594,-96.837,-50.8233,55.5949,0.00438244,0.567018,0.464857,-0.679985,0.0126939,-0.0108518,0.00322681,-7.6382,-5.0989,-3.60342,0.418942,0.0769866,0.162973,23.08,99.054,0.025,0.0119436,-0.00700946,0.0137421,-0.19014,-0.1276,-0.0885918,-0.107462,-0.132173,0.423063,0.0895941,-0.0252652,-9.86493,-0.0460728,0.00563942,-0.107602,0.0895941,-0.0252652,-0.0711842,
1.79115,-96.8904,-50.8324,55.6837,0.00417905,0.567406,0.46469,-0.679777,0.0182574,-0.000920226,-0.0111473,-7.67639,-5.09394,-3.46878,0.419002,0.081944,0.165127,23.085,99.058,0.025001,0.0240292,-0.00571748,-0.00258742,-0.192974,-0.127759,-0.0881073,-0.106331,-0.128159,0.426396,0.00170612,0.0705713,-9.84391,-0.0832756,0.015006,0.0184427,0.00170612,0.0705713,-0.050169,
1.81629,-96.8997,-50.8068,55.7093,0.00390933,0.567425,0.464744,-0.679726,0.0116727,0.0107223,-0.0205474,-7.67569,-5.12585,-3.49803,0.416149,0.0809951,0.159491,23.08,99.043,0.025,0.0166697,0.00949873,-0.0160339,-0.192101,-0.127658,-0.0870524,-0.10251,-0.130105,0.421595,0.00708795,0.0404572,-9.87041,-0.0853392,-0.0125396,-0.0111853,0.00708795,0.0404572,-0.0766687,
1.84143,-96.8997,-50.8068,55.7093,0.00390933,0.567425,0.464744,-0.679726,0.0116727,0.0107223,-0.0205474,-7.67569,-5.12585,-3.49803,0.416149,0.0809951,0.159491,23.08,99.043,0.025,0.0166697,0.00949873,-0.0160339,-0.192101,-0.127658,-0.0870524,-0.10251,-0.130105,0.421595,0.00708795,0.0404572,-9.87041,-0.0853392,-0.0125396,-0.0111853,0.00708795,0.0404572,-0.0766687,
1.86662,-96.9119,-50.6563,55.7725,0.0026347,0.567182,0.465244,-0.679593,0.0362271,0.0480317,-0.0805025,-8.4896,-5.25705,-4.02044,0.417211,0.0918551,0.160537,23.08,99.054,0.025,0.0367865,0.0489165,-0.0774854,-0.204898,-0.129951,-0.0965383,-0.0968364,-0.125189,0.428048,0.397207,0.225663,-10.7548,-0.915546,-0.123415,-0.52803,0.397207,0.225663,-0.961028,
1.89179,-96.9119,-50.6563,55.7725,0.0026347,0.567182,0.465244,-0.679593,0.0362271,0.0480317,-0.0805025,-8.4896,-5.25705,-4.02044,0.417211,0.0918551,0.160537,23.08,99.054,0.025,0.0367865,0.0489165,-0.0774854,-0.204898,-0.129951,-0.0965383,-0.0968364,-0.125189,0.428048,0.397207,0.225663,-10.7548,-0.915546,-0.123415,-0.52803,0.397207,0.225663,-0.961028,
1.91692,-96.8575,-49.8719,55.9398,-0.00362589,0.565249,0.467942,-0.679346,0.142985,0.228273,-0.383884,-10.5247,-5.63699,-5.29695,0.414311,0.0850047,0.160458,23.08,99.065,0.025,0.139764,0.320741,-0.422782,-0.262081,-0.140365,-0.12637,-0.101962,-0.133244,0.42009,1.33511,0.790409,-12.969,-3.03634,-0.40777,-1.7618,1.33511,0.790409,-3.17526,
1.94209,-98.3545,-48.3745,58.108,-0.0185651,0.569372,0.473363,-0.671862,0.519892,-0.187224,-0.81325,-9.17498,-5.02199,-3.70587,0.414539,0.104821,0.166873,23.08,99.054,0.025,0.663741,-0.172388,-1.04206,-0.240952,-0.125194,-0.111538,-0.106156,-0.128878,0.427549,0.697775,1.35678,-10.9912,-1.85413,0.501546,-0.268841,0.697775,1.35678,-1.19745,
1.96722,-98.3545,-48.3745,58.108,-0.0185651,0.569372,0.473363,-0.671862,0.519892,-0.187224,-0.81325,-9.17498,-5.02199,-3.70587,0.414539,0.104821,0.166873,23.08,99.054,0.025,0.663741,-0.172388,-1.04206,-0.240952,-0.125194,-0.111538,-0.106156,-0.128878,0.427549,0.697775,1.35678,-10.9912,-1.85413,0.501546,-0.268841,0.697775,1.35678,-1.19745,
1.99242,-99.6468,-47.4523,59.7718,-0.0277408,0.573598,0.477118,-0.665262,0.428936,-0.161959,-0.858602,-6.21249,-4.7716,-1.00826,0.411869,0.120683,0.161079,23.08,99.054,0.025,0.701605,-0.264678,-1.22835,-0.190003,-0.118886,-0.054931,-0.101097,-0.126796,0.428776,-1.3771,1.03502,-7.70793,1.00271,0.950475,2.32583,-1.3771,1.03502,2.08582,
2.01756,-99.6468,-47.4523,59.7718,-0.0277408,0.573598,0.477118,-0.665262,0.428936,-0.161959,-0.858602,-6.21249,-4.7716,-1.00826,0.411869,0.120683,0.161079,23.08,99.054,0.025,0.701605,-0.264678,-1.22835,-0.190003,-0.118886,-0.054931,-0.101097,-0.126796,0.428776,-1.3771,1.03502,-7.70793,1.00271,0.950475,2.32583,-1.3771,1.03502,2.08582,
2.04269,-101.136,-46.5243,61.1695,-0.0343003,0.577,0.483237,-0.657554,-0.0792419,-0.302707,0.0171475,0.125577,-5.25621,-0.812201,0.41095,0.122684,0.161013,23.075,99.043,0.024999,-0.0401694,-0.268186,-0.299567,-0.0113332,-0.132114,-0.00311966,-0.109018,-0.129804,0.425584,-2.50576,-3.29007,-3.3466,7.23257,0.647109,2.43727,-2.50576,-3.29007,6.44714,
2.06783,-101.136,-46.5243,61.1695,-0.0343003,0.577,0.483237,-0.657554,-0.0792419,-0.302707,0.0171475,0.125577,-5.25621,-0.812201,0.41095,0.122684,0.161013,23.075,99.043,0.024999,-0.0401694,-0.268186,-0.299567,-0.0113332,-0.132114,-0.00311966,-0.109018,-0.129804,0.425584,-2.50576,-3.29007,-3.3466,7.23257,0.647109,2.43727,-2.50576,-3.29007,6.44714,
2.09308,-101.724,-48.3785,61.1321,-0.0191447,0.582492,0.477688,-0.657382,-0.283908,-0.290822,0.756998,-4.87251,-5.37205,-2.30858,0.417441,0.115524,0.149314,23.08,99.054,0.025,-0.315292,-0.591687,0.974534,-0.0917538,-0.133089,-0.047962,-0.103443,-0.12943,0.427135,-0.786245,-0.974232,-7.5075,2.44879,0.324672,0.832023,-0.786245,-0.974232,2.28625,
2.11834,-99.8168,-50.243,58.6206,-0.00224595,0.577487,0.470136,-0.667439,-0.346097,0.159504,0.724525,-8.12877,-5.29665,-4.5698,0.419148,0.0986779,0.151768,23.08,99.054,0.025,-0.545017,0.217736,1.1022,-0.190484,-0.136295,-0.104168,-0.101347,-0.127124,0.426643,1.10845,-0.300359,-10.6628,-0.599695,0.050673,-1.30841,1.10845,-0.300359,-0.869067,
2.14355,-99.8168,-50.243,58.6206,-0.00224595,0.577487,0.470136,-0.667439,-0.346097,0.159504,0.724525,-8.12877,-5.29665,-4.5698,0.419148,0.0986779,0.151768,23.08,99.054,0.025,-0.545017,0.217736,1.1022,-0.190484,-0.136295,-0.104168,-0.101347,-0.127124,0.426643,1.10845,-0.300359,-10.6628,-0.599695,0.050673,-1.30841,1.10845,-0.300359,-0.869067,
2.16879,-98.8791,-50.9485,57.5312,0.00394024,0.575217,0.466633,-0.671835,-0.18948,0.0426746,0.570996,-9.34412,-5.13394,-5.08198,0.420954,0.0907388,0.155238,23.08,99.054,0.025,-0.369144,0.132913,0.921644,-0.220048,-0.13134,-0.123338,-0.103044,-0.126652,0.42764,1.57559,0.163372,-11.7042,-1.7385,0.0718014,-1.76955,1.57559,0.163372,-1.91041,
2.19401,-98.8791,-50.9485,57.5312,0.00394024,0.575217,0.466633,-0.671835,-0.18948,0.0426746,0.570996,-9.34412,-5.13394,-5.08198,0.420954,0.0907388,0.155238,23.08,99.054,0.025,-0.369144,0.132913,0.921644,-0.220048,-0.13134,-0.123338,-0.103044,-0.126652,0.42764,1.57559,0.163372,-11.7042,-1.7385,0.0718014,-1.76955,1.57559,0.163372,-1.91041,
2.21924,-97.648,-51.5992,56.3013,0.00918555,0.572362,0.462316,-0.677186,-0.0730404,0.252053,0.127929,-10.8905,-5.40558,-4.00592,0.418956,0.079922,0.157443,23.08,99.054,0.025,-0.108464,0.241464,0.326872,-0.270756,-0.135443,-0.104492,-0.104463,-0.126897,0.423892,0.5301,1.44076,-12.7088,-3.21529,-0.344331,-0.630652,0.5301,1.44076,-2.91506,
2.24454,-96.6944,-50.9959,55.3649,0.00614299,0.566665,0.4643,-0.680645,-0.0301808,0.153947,-0.160918,-8.8808,-5.42531,-3.89053,0.419025,0.0849049,0.163997,23.08,99.043,0.025,-0.0812306,0.371722,-0.170032,-0.230364,-0.135807,-0.0910105,-0.10206,-0.125967,0.428255,0.163692,0.385727,-11.1024,-1.27008,-0.353685,-0.387252,0.163692,0.385727,-1.30865,
2.26977,-96.6944,-50.9959,55.3649,0.00614299,0.566665,0.4643,-0.680645,-0.0301808,0.153947,-0.160918,-8.8808,-5.42531,-3.89053,0.419025,0.0849049,0.163997,23.08,99.043,0.025,-0.0812306,0.371722,-0.170032,-0.230364,-0.135807,-0.0910105,-0.10206,-0.125967,0.428255,0.163692,0.385727,-11.1024,-1.27008,-0.353685,-0.387252,0.163692,0.385727,-1.30865,
2.29497,-97.31,-50.5791,55.989,0.00283188,0.567798,0.466909,-0.677933,0.0987658,-0.0868689,-0.205399,-8.0181,-5.18638,-3.87556,0.416223,0.0869606,0.164934,23.08,99.054,0.025001,0.116234,-0.109499,-0.284653,-0.204179,-0.130596,-0.0991508,-0.104838,-0.12503,0.425891,0.321219,0.0554349,-10.3006,-0.452414,-0.031147,-0.39687,0.321219,0.0554349,-0.506852,
2.3202,-97.31,-50.5791,55.989,0.00283188,0.567798,0.466909,-0.677933,0.0987658,-0.0868689,-0.205399,-8.0181,-5.18638,-3.87556,0.416223,0.0869606,0.164934,23.08,99.054,0.025001,0.116234,-0.109499,-0.284653,-0.204179,-0.130596,-0.0991508,-0.104838,-0.12503,0.425891,0.321219,0.0554349,-10.3006,-0.452414,-0.031147,-0.39687,0.321219,0.0554349,-0.506852,
2.34547,-97.7467,-50.4041,56.51,0.00080181,0.569344,0.467765,-0.676049,0.145488,-0.094606,-0.214522,-7.7993,-5.10411,-3.92782,0.420028,0.0908078,0.16289,23.08,99.043,0.025,0.178023,-0.134245,-0.292654,-0.196761,-0.127547,-0.0976574,-0.103842,-0.127262,0.429213,0.457952,-0.0412033,-10.1043,-0.252637,0.101798,-0.48341,0.457952,-0.0412033,-0.310574,
2.37071,-97.7467,-50.4041,56.51,0.00080181,0.569344,0.467765,-0.676049,0.145488,-0.094606,-0.214522,-7.7993,-5.10411,-3.92782,0.420028,0.0908078,0.16289,23.08,99.043,0.025,0.178023,-0.134245,-0.292654,-0.196761,-0.127547,-0.0976574,-0.103842,-0.127262,0.429213,0.457952,-0.0412033,-10.1043,-0.252637,0.101798,-0.48341,0.457952,-0.0412033,-0.310574,
2.39613,-98.9109,-49.9438,58.1308,-0.00586266,0.574524,0.46879,-0.670913,0.353344,-0.137844,-0.37761,-9.13615,-5.17494,-4.40055,0.416327,0.098776,0.156022,23.08,99.043,0.025,0.4427,-0.216946,-0.44799,-0.214598,-0.125877,-0.110557,-0.101169,-0.126519,0.425659,1.10699,0.572653,-11.3164,-1.63988,0.177621,-1.07287,1.10699,0.572653,-1.52265,
2.42141,-99.8294,-48.0272,60.0502,-0.0247478,0.576582,0.47396,-0.665058,0.518273,0.359421,-0.988712,-10.999,-5.52203,-5.12141,0.415557,0.113658,0.160235,23.08,99.043,0.024999,0.65913,0.453157,-1.2032,-0.284659,-0.137914,-0.127653,-0.105682,-0.129078,0.428312,1.98,1.58305,-13.0872,-3.71777,0.153161,-1.85146,1.98,1.58305,-3.29343,
2.44667,-99.8294,-48.0272,60.0502,-0.0247478,0.576582,0.47396,-0.665058,0.518273,0.359421,-0.988712,-10.999,-5.52203,-5.12141,0.415557,0.113658,0.160235,23.08,99.043,0.024999,0.65913,0.453157,-1.2032,-0.284659,-0.137914,-0.127653,-0.105682,-0.129078,0.428312,1.98,1.58305,-13.0872,-3.71777,0.153161,-1.85146,1.98,1.58305,-3.29343,
2.47188,-100.565,-46.4047,61.4977,-0.0398333,0.577829,0.478886,-0.659693,0.714686,0.128747,-1.25189,-8.95258,-5.0479,-4.43575,0.414743,0.124586,0.164486,23.08,99.054,0.025001,0.902266,0.355919,-1.65248,-0.248531,-0.126278,-0.119096,-0.111132,-0.131708,0.42999,1.72581,1.13034,-11.0023,-1.85967,0.88695,-1.21307,1.72581,1.13034,-1.20852,
2.49709,-100.565,-46.4047,61.4977,-0.0398333,0.577829,0.478886,-0.659693,0.714686,0.128747,-1.25189,-8.95258,-5.0479,-4.43575,0.414743,0.124586,0.164486,23.08,99.054,0.025001,0.902266,0.355919,-1.65248,-0.248531,-0.126278,-0.119096,-0.111132,-0.131708,0.42999,1.72581,1.13034,-11.0023,-1.85967,0.88695,-1.21307,1.72581,1.13034,-1.20852,
2.5223,-103.59,-43.3957,65.9261,-0.0689179,0.589109,0.488177,-0.640222,0.707995,-0.287173,-1.12965,-3.25014,-5.49257,0.196404,0.406571,0.155404,0.154963,23.08,99.043,0.024999,1.13752,-0.444139,-1.75509,-0.120483,-0.130105,-0.0323707,-0.112212,-0.13184,0.428358,-2.59378,-0.431298,-5.81864,3.47849,1.00484,3.09929,-2.59378,-0.431298,3.97511,
2.54755,-103.59,-43.3957,65.9261,-0.0689179,0.589109,0.488177,-0.640222,0.707995,-0.287173,-1.12965,-3.25014,-5.49257,0.196404,0.406571,0.155404,0.154963,23.08,99.043,0.024999,1.13752,-0.444139,-1.75509,-0.120483,-0.130105,-0.0323707,-0.112212,-0.13184,0.428358,-2.59378,-0.431298,-5.81864,3.47849,1.00484,3.09929,-2.59378,-0.431298,3.97511,
2.5727,-103.966,-42.7372,66.2273,-0.0729001,0.588769,0.491914,-0.637226,-0.564504,0.0591347,0.713198,6.15355,-6.67381,2.64434,0.401934,0.162446,0.154657,23.08,99.043,0.025001,-0.487943,0.15837,0.365998,0.131314,-0.170982,0.0983727,-0.11049,-0.129165,0.427746,-6.87567,-6.47301,0.47311,12.8,-0.0908918,5.544,-6.87567,-6.47301,10.2669,
2.59793,-102.359,-47.4788,62.9643,-0.0321926,0.587672,0.476415,-0.653172,-0.814894,-0.463614,2.14618,-3.96242,-4.60195,-3.0391,0.415726,0.131407,0.151268,23.08,99.054,0.025,-1.12842,-0.712542,2.87336,-0.0356717,-0.121987,-0.0569462,-0.104097,-0.124638,0.43198,0.309589,-1.46134,-6.62447,3.25584,1.29394,-0.0303553,0.309589,-1.46134,3.16928,
2.62315,-102.359,-47.4788,62.9643,-0.0321926,0.587672,0.476415,-0.653172,-0.814894,-0.463614,2.14618,-3.96242,-4.60195,-3.0391,0.415726,0.131407,0.151268,23.08,99.054,0.025,-1.12842,-0.712542,2.87336,-0.0356717,-0.121987,-0.0569462,-0.104097,-0.124638,0.43198,0.309589,-1.46134,-6.62447,3.25584,1.29394,-0.0303553,0.309589,-1.46134,3.16928,
2.64837,-100.476,-50.3694,60.3436,-0.00810643,0.584923,0.464596,-0.664793,-0.827635,0.0690235,2.1609,-8.5472,-4.43038,-5.63583,0.420068,0.0976529,0.149623,23.08,99.065,0.025001,-1.20538,-0.283007,3.13913,-0.170444,-0.118355,-0.116024,-0.106808,-0.128276,0.424873,2.72195,-0.158732,-10.8172,-1.00432,0.998136,-2.54493,2.72195,-0.158732,-1.02343,
2.67352,-100.476,-50.3694,60.3436,-0.00810643,0.584923,0.464596,-0.664793,-0.827635,0.0690235,2.1609,-8.5472,-4.43038,-5.63583,0.420068,0.0976529,0.149623,23.08,99.065,0.025001,-1.20538,-0.283007,3.13913,-0.170444,-0.118355,-0.116024,-0.106808,-0.128276,0.424873,2.72195,-0.158732,-10.8172,-1.00432,0.998136,-2.54493,2.72195,-0.158732,-1.02343,
2.69874,-93.8481,-54.133,53.1821,0.0249875,0.569049,0.442543,-0.692615,-0.461371,0.596364,1.51812,-12.9891,-4.04853,-6.12771,0.4215,0.0531705,0.161137,23.08,99.054,0.024999,-0.818762,0.828429,2.45152,-0.30211,-0.108709,-0.143966,-0.105922,-0.127389,0.423092,2.6085,1.83715,-14.5766,-5.05244,0.545166,-2.68895,2.6085,1.83715,-4.78283,
2.72396,-89.4651,-55.2536,49.2529,0.034401,0.559293,0.42957,-0.70815,0.0958936,0.309674,0.284072,-14.6091,-4.05346,-4.76468,0.420372,0.036371,0.159047,23.095,99.058,0.024999,0.0256387,0.527705,0.785981,-0.363487,-0.103504,-0.131553,-0.0955202,-0.132544,0.420285,0.933572,3.25651,-15.5268,-6.56177,0.175373,-1.12126,0.933572,3.25651,-5.73309,
2.74917,-89.4651,-55.2536,49.2529,0.034401,0.559293,0.42957,-0.70815,0.0958936,0.309674,0.284072,-14.6091,-4.05346,-4.76468,0.420372,0.036371,0.159047,23.095,99.058,0.024999,0.0256387,0.527705,0.785981,-0.363487,-0.103504,-0.131553,-0.0955202,-0.132544,0.420285,0.933572,3.25651,-15.5268,-6.56177,0.175373,-1.12126,0.933572,3.25651,-5.73309,
2.77432,-89.1965,-54.0926,49.4432,0.0247869,0.555627,0.432627,-0.709576,0.187373,0.34618,-0.59237,-10.7536,-4.44618,-4.4104,0.415854,0.0504373,0.176277,23.08,99.054,0.024999,0.227922,0.483173,-0.682916,-0.301009,-0.105061,-0.109029,-0.0994411,-0.121422,0.426521,0.442391,1.25427,-12.373,-2.821,-0.082262,-0.67577,0.442391,1.25427,-2.57926,
2.79953,-89.1965,-54.0926,49.4432,0.0247869,0.555627,0.432627,-0.709576,0.187373,0.34618,-0.59237,-10.7536,-4.44618,-4.4104,0.415854,0.0504373,0.176277,23.08,99.054,0.024999,0.227922,0.483173,-0.682916,-0.301009,-0.105061,-0.109029,-0.0994411,-0.121422,0.426521,0.442391,1.25427,-12.373,-2.821,-0.082262,-0.67577,0.442391,1.25427,-2.57926,
2.82477,-89.7713,-53.191,50.2652,0.0169438,0.555171,0.436566,-0.707749,0.301413,0.119348,-0.623007,-7.68368,-4.75849,-4.21034,0.413993,0.0524693,0.177262,23.08,99.054,0.025,0.359994,0.324654,-0.898477,-0.221258,-0.114126,-0.109415,-0.102277,-0.125426,0.423525,0.197928,-0.480174,-9.95688,0.157555,-0.245996,-0.459367,0.197928,-0.480174,-0.163136,
2.85004,-89.7713,-53.191,50.2652,0.0169438,0.555171,0.436566,-0.707749,0.301413,0.119348,-0.623007,-7.68368,-4.75849,-4.21034,0.413993,0.0524693,0.177262,23.08,99.054,0.025,0.359994,0.324654,-0.898477,-0.221258,-0.114126,-0.109415,-0.102277,-0.125426,0.423525,0.197928,-0.480174,-9.95688,0.157555,-0.245996,-0.459367,0.197928,-0.480174,-0.163136,
2.87527,-91.4298,-52.3909,52.3396,0.00730358,0.559924,0.440567,-0.701664,0.127164,-0.201774,-0.238615,-5.67683,-4.34619,-1.77016,0.415077,0.0662702,0.17388,23.08,99.054,0.024999,0.296915,-0.243465,-0.470798,-0.148986,-0.111087,-0.0534019,-0.100315,-0.125124,0.425671,-1.25665,-0.0867023,-7.25689,2.08171,0.385349,1.88157,-1.25665,-0.0867023,2.53685,
2.90049,-92.0191,-52.6752,52.6481,0.0100724,0.562107,0.441267,-0.699441,-0.100167,-0.134632,0.140628,-6.58576,-4.30878,-3.90185,0.415006,0.0603243,0.171736,23.08,99.065,0.025001,-0.151801,-0.194732,0.146285,-0.154626,-0.108363,-0.0861219,-0.104458,-0.127042,0.422269,0.4656,-0.629839,-8.74922,1.20233,0.411698,-0.299048,0.4656,-0.629839,1.04453,
2.92573,-92.0191,-52.6752,52.6481,0.0100724,0.562107,0.441267,-0.699441,-0.100167,-0.134632,0.140628,-6.58576,-4.30878,-3.90185,0.415006,0.0603243,0.171736,23.08,99.065,0.025001,-0.151801,-0.194732,0.146285,-0.154626,-0.108363,-0.0861219,-0.104458,-0.127042,0.422269,0.4656,-0.629839,-8.74922,1.20233,0.411698,-0.299048,0.4656,-0.629839,1.04453,
2.95097,-92.1236,-53.1288,52.6331,0.0135065,0.563682,0.43975,-0.699071,0.024448,-0.0495817,0.00984131,-9.51776,-4.72903,-4.25007,0.415038,0.0642544,0.167298,23.08,99.054,0.025,-0.00485321,-0.126304,0.112214,-0.224208,-0.115074,-0.107042,-0.0986053,-0.123381,0.423589,0.531071,0.621342,-11.4169,-1.6829,-0.0586475,-0.683569,0.531071,0.621342,-1.6232,
2.9762,-92.1236,-53.1288,52.6331,0.0135065,0.563682,0.43975,-0.699071,0.024448,-0.0495817,0.00984131,-9.51776,-4.72903,-4.25007,0.415038,0.0642544,0.167298,23.08,99.054,0.025,-0.00485321,-0.126304,0.112214,-0.224208,-0.115074,-0.107042,-0.0986053,-0.123381,0.423589,0.531071,0.621342,-11.4169,-1.6829,-0.0586475,-0.683569,0.531071,0.621342,-1.6232,
3.00144,-92.2015,-52.9353,52.778,0.0117984,0.563531,0.440464,-0.698773,0.0853035,0.141467,-0.231938,-10.887,-5.11876,-4.49916,0.416903,0.0622351,0.168513,23.08,99.054,0.025,0.0816172,0.0828482,-0.172899,-0.258162,-0.123384,-0.109308,-0.101478,-0.126586,0.423977,0.529647,1.11807,-12.7844,-3.07204,-0.418332,-0.928492,0.529647,1.11807,-2.99064,
3.02665,-93.119,-50.976,54.3166,-0.00530608,0.562435,0.448103,-0.694869,0.56273,0.202349,-1.11023,-13.8596,-5.36607,-7.28327,0.415183,0.076166,0.174886,23.08,99.043,0.024999,0.595462,0.360211,-1.27024,-0.337906,-0.132062,-0.172039,-0.104775,-0.128594,0.425733,2.89266,1.88543,-16.1866,-6.251,-0.357243,-3.68625,2.89266,1.88543,-6.39287,
3.05188,-93.119,-50.976,54.3166,-0.00530608,0.562435,0.448103,-0.694869,0.56273,0.202349,-1.11023,-13.8596,-5.36607,-7.28327,0.415183,0.076166,0.174886,23.08,99.043,0.024999,0.595462,0.360211,-1.27024,-0.337906,-0.132062,-0.172039,-0.104775,-0.128594,0.425733,2.89266,1.88543,-16.1866,-6.251,-0.357243,-3.68625,2.89266,1.88543,-6.39287,
3.07716,-97.2225,-46.711,60.0986,-0.0465013,0.571777,0.464944,-0.67434,1.13035,-0.0673897,-2.22761,-11.0477,-3.69085,-3.56511,0.409052,0.118867,0.17635,23.08,99.043,0.024999,1.55225,-0.0875191,-2.92168,-0.309996,-0.0936095,-0.129146,-0.110664,-0.128588,0.428685,1.73763,3.76398,-11.4542,-3.91882,2.13059,-0.21745,1.73763,3.76398,-1.66042,
3.1024,-97.2225,-46.711,60.0986,-0.0465013,0.571777,0.464944,-0.67434,1.13035,-0.0673897,-2.22761,-11.0477,-3.69085,-3.56511,0.409052,0.118867,0.17635,23.08,99.043,0.024999,1.55225,-0.0875191,-2.92168,-0.309996,-0.0936095,-0.129146,-0.110664,-0.128588,0.428685,1.73763,3.76398,-11.4542,-3.91882,2.13059,-0.21745,1.73763,3.76398,-1.66042,
3.12761,-98.5138,-40.9605,62.2237,-0.0889669,0.562249,0.489669,-0.660443,-0.558944,1.5378,-1.00093,7.12824,-7.4924,4.92252,0.391647,0.162895,0.186027,23.08,99.054,0.025,-0.124399,1.65013,-2.22803,0.100318,-0.153695,0.144286,-0.109087,-0.129726,0.431044,-8.97812,-6.97244,1.39915,13.5484,-0.948741,8.36914,-8.97812,-6.97244,11.1929,
3.15286,-98.5138,-40.9605,62.2237,-0.0889669,0.562249,0.489669,-0.660443,-0.558944,1.5378,-1.00093,7.12824,-7.4924,4.92252,0.391647,0.162895,0.186027,23.08,99.054,0.025,-0.124399,1.65013,-2.22803,0.100318,-0.153695,0.144286,-0.109087,-0.129726,0.431044,-8.97812,-6.97244,1.39915,13.5484,-0.948741,8.36914,-8.97812,-6.97244,11.1929,
3.1781,-96.9035,-39.8649,60.0813,-0.0912768,0.547951,0.495862,-0.667487,-0.806154,0.576983,0.20417,7.02594,-5.98899,0.923849,0.387889,0.162053,0.194644,23.08,99.043,0.024999,-1.10132,1.60426,-0.359413,0.180548,-0.17292,0.0529014,-0.104725,-0.133852,0.430954,-4.77303,-7.90832,0.872883,13.3035,0.526484,4.67324,-4.77303,-7.90832,10.6666,
3.20332,-97.2709,-43.7532,58.5803,-0.0561285,0.555495,0.486965,-0.67167,-0.456229,-1.25143,1.60247,-2.78473,-4.27426,-3.93884,0.39602,0.133071,0.179945,23.08,99.054,0.025,-0.734138,-1.70083,2.07893,-0.00853065,-0.105146,-0.0944563,-0.101567,-0.130849,0.423654,0.87962,-2.05885,-6.04367,3.98816,1.76273,-0.251009,0.87962,-2.05885,3.75007,
3.22853,-97.2709,-43.7532,58.5803,-0.0561285,0.555495,0.486965,-0.67167,-0.456229,-1.25143,1.60247,-2.78473,-4.27426,-3.93884,0.39602,0.133071,0.179945,23.08,99.054,0.025,-0.734138,-1.70083,2.07893,-0.00853065,-0.105146,-0.0944563,-0.101567,-0.130849,0.423654,0.87962,-2.05885,-6.04367,3.98816,1.76273,-0.251009,0.87962,-2.05885,3.75007,
3.25375,-95.6628,-48.613,55.9523,-0.0175716,0.560901,0.466914,-0.683427,-0.547112,0.0277724,1.52894,-9.25334,-4.39834,-4.84629,0.410676,0.0960439,0.171159,23.1,99.047,0.024999,-0.778198,-0.308919,2.30975,-0.208433,-0.116344,-0.118732,-0.10142,-0.130543,0.424084,1.67836,1.18802,-11.1458,-1.90547,0.966708,-1.22102,1.67836,1.18802,-1.35201,
3.27902,-95.6628,-48.613,55.9523,-0.0175716,0.560901,0.466914,-0.683427,-0.547112,0.0277724,1.52894,-9.25334,-4.39834,-4.84629,0.410676,0.0960439,0.171159,23.1,99.047,0.024999,-0.778198,-0.308919,2.30975,-0.208433,-0.116344,-0.118732,-0.10142,-0.130543,0.424084,1.67836,1.18802,-11.1458,-1.90547,0.966708,-1.22102,1.67836,1.18802,-1.35201,
3.30436,-93.5517,-50.0429,53.607,-0.00475292,0.55629,0.458731,-0.692882,-0.490832,0.290673,1.25784,-10.3533,-4.20919,-4.77752,0.410509,0.0792651,0.176817,23.08,99.043,0.025001,-0.74419,0.303087,1.97142,-0.246862,-0.112541,-0.119069,-0.103439,-0.128148,0.423016,1.46217,1.79194,-11.9325,-2.84617,0.853797,-1.04573,1.46217,1.79194,-2.13874,
3.32958,-89.4859,-51.4044,49.3503,0.0102307,0.544708,0.447766,-0.709009,-0.244752,0.400872,0.636227,-11.5845,-5.15479,-6.16156,0.408411,0.0576098,0.185725,23.08,99.054,0.024999,-0.466848,0.614093,1.11791,-0.283122,-0.124455,-0.138939,-0.102246,-0.126976,0.421942,1.30749,1.04463,-13.9977,-3.93001,-0.519445,-2.1816,1.30749,1.04463,-4.20397,
3.35479,-89.4859,-51.4044,49.3503,0.0102307,0.544708,0.447766,-0.709009,-0.244752,0.400872,0.636227,-11.5845,-5.15479,-6.16156,0.408411,0.0576098,0.185725,23.08,99.054,0.024999,-0.466848,0.614093,1.11791,-0.283122,-0.124455,-0.138939,-0.102246,-0.126976,0.421942,1.30749,1.04463,-13.9977,-3.93001,-0.519445,-2.1816,1.30749,1.04463,-4.20397,
3.38001,-87.7603,-51.3685,48.0281,0.0100663,0.539574,0.443464,-0.71561,0.182885,0.183414,-0.0705961,-11.588,-5.68166,-5.30178,0.406587,0.0626143,0.187783,23.08,99.054,0.025,0.171979,0.332527,0.0966943,-0.296682,-0.144181,-0.143804,-0.0929972,-0.123097,0.425082,0.0963926,1.16953,-13.903,-3.93731,-1.13582,-1.21272,0.0963926,1.16953,-4.10927,
3.40517,-87.7603,-51.3685,48.0281,0.0100663,0.539574,0.443464,-0.71561,0.182885,0.183414,-0.0705961,-11.588,-5.68166,-5.30178,0.406587,0.0626143,0.187783,23.08,99.054,0.025,0.171979,0.332527,0.0966943,-0.296682,-0.144181,-0.143804,-0.0929972,-0.123097,0.425082,0.0963926,1.16953,-13.903,-3.93731,-1.13582,-1.21272,0.0963926,1.16953,-4.10927,
3.4304,-88.5749,-50.6653,49.2903,0.00175012,0.541563,0.445901,-0.712656,0.194665,-0.0706242,-0.405841,-8.48146,-4.83911,-3.25567,0.40751,0.0606193,0.188949,23.08,99.054,0.025,0.30886,-0.0494116,-0.533429,-0.229134,-0.12305,-0.0884121,-0.100489,-0.129979,0.422431,-0.710406,0.879016,-10.231,-0.90642,-0.133487,0.793196,-0.710406,0.879016,-0.437296,
3.45566,-88.5749,-50.6653,49.2903,0.00175012,0.541563,0.445901,-0.712656,0.194665,-0.0706242,-0.405841,-8.48146,-4.83911,-3.25567,0.40751,0.0606193,0.188949,23.08,99.054,0.025,0.30886,-0.0494116,-0.533429,-0.229134,-0.12305,-0.0884121,-0.100489,-0.129979,0.422431,-0.710406,0.879016,-10.231,-0.90642,-0.133487,0.793196,-0.710406,0.879016,-0.437296,
3.48095,-89.3274,-50.3203,50.0708,-0.00164883,0.543223,0.44851,-0.70975,0.107719,-0.111385,-0.378233,-7.04497,-4.5866,-3.18791,0.407576,0.0665588,0.189993,23.08,99.054,0.025,0.200315,-0.137891,-0.562385,-0.190444,-0.115717,-0.0792423,-0.101475,-0.128302,0.424132,-0.501765,0.210634,-8.97413,0.492554,0.208636,0.825688,-0.501765,0.210634,0.819613,
3.50631,-90.4299,-49.8661,51.0004,-0.00495422,0.545119,0.45306,-0.705378,-0.0190577,-0.0380946,-0.201784,-6.6045,-4.25802,-3.86744,0.407605,0.0695191,0.188865,23.08,99.043,0.025,-0.00421931,-0.0931806,-0.327046,-0.164468,-0.106277,-0.0931554,-0.104004,-0.12978,0.423066,0.324934,-0.136071,-8.75118,0.883218,0.647979,0.105304,0.324934,-0.136071,1.04257,
3.53157,-90.4299,-49.8661,51.0004,-0.00495422,0.545119,0.45306,-0.705378,-0.0190577,-0.0380946,-0.201784,-6.6045,-4.25802,-3.86744,0.407605,0.0695191,0.188865,23.08,99.043,0.025,-0.00421931,-0.0931806,-0.327046,-0.164468,-0.106277,-0.0931554,-0.104004,-0.12978,0.423066,0.324934,-0.136071,-8.75118,0.883218,0.647979,0.105304,0.324934,-0.136071,1.04257,
3.55686,-90.6732,-49.4307,51.128,-0.00727769,0.543937,0.456019,-0.704362,0.0262711,0.090284,-0.137795,-7.8348,-4.79637,-5.31135,0.407642,0.0734616,0.186628,23.08,99.043,0.025001,-0.00754509,0.116727,-0.187571,-0.184585,-0.115635,-0.124282,-0.100748,-0.131527,0.423024,1.12174,-0.286335,-10.548,-0.39528,0.162624,-1.31394,1.12174,-0.286335,-0.754217,
3.58208,-90.6732,-49.4307,51.128,-0.00727769,0.543937,0.456019,-0.704362,0.0262711,0.090284,-0.137795,-7.8348,-4.79637,-5.31135,0.407642,0.0734616,0.186628,23.08,99.043,0.025001,-0.00754509,0.116727,-0.187571,-0.184585,-0.115635,-0.124282,-0.100748,-0.131527,0.423024,1.12174,-0.286335,-10.548,-0.39528,0.162624,-1.31394,1.12174,-0.286335,-0.754217,
3.60733,-91.0477,-48.671,51.9574,-0.0153005,0.544322,0.457986,-0.702658,0.391795,0.0393458,-0.442614,-11.0433,-5.74924,-7.14337,0.401255,0.0914603,0.191625,23.08,99.054,0.025,0.407558,0.132916,-0.48129,-0.264235,-0.139249,-0.171801,-0.0967721,-0.120467,0.426865,2.09322,0.548849,-14.1899,-3.68884,-0.655651,-3.15772,2.09322,0.548849,-4.39612,
3.63255,-92.155,-48.0791,53.6542,-0.0240685,0.549038,0.459476,-0.697753,0.760323,-0.31609,-0.787754,-11.5337,-5.57909,-6.90318,0.404099,0.0943223,0.186241,23.08,99.054,0.025,0.866202,-0.226384,-0.907492,-0.284885,-0.139153,-0.178975,-0.0989798,-0.127691,0.425178,2.30168,1.23229,-14.3175,-4.24652,-0.308805,-3.02529,2.30168,1.23229,-4.52376,
3.65785,-92.155,-48.0791,53.6542,-0.0240685,0.549038,0.459476,-0.697753,0.760323,-0.31609,-0.787754,-11.5337,-5.57909,-6.90318,0.404099,0.0943223,0.186241,23.08,99.054,0.025,0.866202,-0.226384,-0.907492,-0.284885,-0.139153,-0.178975,-0.0989798,-0.127691,0.425178,2.30168,1.23229,-14.3175,-4.24652,-0.308805,-3.02529,2.30168,1.23229,-4.52376,
3.68308,-96.8024,-45.9038,59.9665,-0.0529319,0.56838,0.467071,-0.675268,0.982289,-0.4048,-1.51829,-8.04511,-4.20329,-0.540372,0.403474,0.125939,0.177095,23.08,99.054,0.024999,1.52606,-0.744981,-2.04486,-0.243011,-0.108113,-0.0686212,-0.106089,-0.127134,0.427313,-1.29389,2.96484,-8.49818,-1.01152,1.6968,2.87064,-1.29389,2.96484,1.29557,
3.70831,-96.8024,-45.9038,59.9665,-0.0529319,0.56838,0.467071,-0.675268,0.982289,-0.4048,-1.51829,-8.04511,-4.20329,-0.540372,0.403474,0.125939,0.177095,23.08,99.054,0.024999,1.52606,-0.744981,-2.04486,-0.243011,-0.108113,-0.0686212,-0.106089,-0.127134,0.427313,-1.29389,2.96484,-8.49818,-1.01152,1.6968,2.87064,-1.29389,2.96484,1.29557,
3.73354,-98.1201,-43.1571,61.4924,-0.0727504,0.566238,0.480513,-0.665724,-0.369263,0.431023,-0.233018,3.65819,-6.21773,1.38037,0.398054,0.146874,0.181011,23.08,99.054,0.024999,-0.275996,0.645833,-0.863421,0.0733968,-0.155147,0.0770963,-0.108271,-0.128999,0.429442,-4.97983,-5.30502,-1.00297,10.3571,0.0603948,4.79019,-4.97983,-5.30502,8.79077,
3.75885,-98.1201,-43.1571,61.4924,-0.0727504,0.566238,0.480513,-0.665724,-0.369263,0.431023,-0.233018,3.65819,-6.21773,1.38037,0.398054,0.146874,0.181011,23.08,99.054,0.024999,-0.275996,0.645833,-0.863421,0.0733968,-0.155147,0.0770963,-0.108271,-0.128999,0.429442,-4.97983,-5.30502,-1.00297,10.3571,0.0603948,4.79019,-4.97983,-5.30502,8.79077,
3.78411,-98.103,-44.9076,60.4761,-0.055797,0.567785,0.477006,-0.66856,-0.298471,-0.57708,0.973641,-2.96267,-5.31747,-4.52037,0.403533,0.131866,0.175938,23.08,99.054,0.024999,-0.464391,-0.784101,1.1871,-0.0276045,-0.129269,-0.0970269,-0.107471,-0.129736,0.427551,0.91359,-2.8985,-6.94627,3.95137,0.718227,-1.10221,0.91359,-2.8985,2.84747,
3.8094,-97.8237,-46.5677,59.878,-0.0431193,0.570643,0.470276,-0.671824,-0.266925,-0.362628,1.10133,-6.32678,-5.43082,-4.55668,0.405314,0.124832,0.165099,23.08,99.054,0.025001,-0.403336,-0.656645,1.54483,-0.123673,-0.137905,-0.114513,-0.0984796,-0.12786,0.425528,1.1063,-0.880975,-9.39602,0.785316,0.393095,-1.17769,1.1063,-0.880975,0.397721,
3.83544,-97.8237,-46.5677,59.878,-0.0431193,0.570643,0.470276,-0.671824,-0.266925,-0.362628,1.10133,-6.32678,-5.43082,-4.55668,0.405314,0.124832,0.165099,23.08,99.054,0.025001,-0.403336,-0.656645,1.54483,-0.123673,-0.137905,-0.114513,-0.0984796,-0.12786,0.425528,1.1063,-0.880975,-9.39602,0.785316,0.393095,-1.17769,1.1063,-0.880975,0.397721,
3.86068,-95.8062,-49.0446,57.6836,-0.0244522,0.569382,0.45712,-0.682823,-0.22135,0.163178,0.808258,-9.78919,-5.06977,-3.77593,0.407876,0.0990821,0.170984,23.08,99.065,0.025001,-0.337685,0.121006,1.30042,-0.230967,-0.131694,-0.0948527,-0.104727,-0.125128,0.422837,0.645888,1.59918,-11.5245,-2.39277,0.355422,-0.344086,0.645888,1.59918,-1.73075,
3.88594,-95.8062,-49.0446,57.6836,-0.0244522,0.569382,0.45712,-0.682823,-0.22135,0.163178,0.808258,-9.78919,-5.06977,-3.77593,0.407876,0.0990821,0.170984,23.08,99.065,0.025001,-0.337685,0.121006,1.30042,-0.230967,-0.131694,-0.0948527,-0.104727,-0.125128,0.422837,0.645888,1.59918,-11.5245,-2.39277,0.355422,-0.344086,0.645888,1.59918,-1.73075,
3.91122,-93.4295,-49.7845,55.3096,-0.0172678,0.562107,0.45094,-0.693102,-0.190185,0.397841,0.276644,-10.4348,-5.27893,-3.84886,0.408722,0.0882258,0.178835,23.08,99.054,0.025,-0.280351,0.524254,0.552182,-0.260487,-0.13025,-0.0925717,-0.104482,-0.124752,0.424665,0.264627,1.73739,-12.1851,-2.95611,-0.079524,-0.249906,0.264627,1.73739,-2.3914,
3.93646,-92.549,-49.6252,54.4007,-0.0170566,0.557823,0.450819,-0.696638,-0.141428,0.366328,0.0530646,-9.80616,-5.64109,-4.31933,0.409687,0.0892164,0.183275,23.08,99.054,0.025,-0.240578,0.558888,0.206118,-0.252003,-0.13869,-0.101229,-0.102723,-0.124403,0.428211,0.270013,0.931383,-12.0706,-2.34506,-0.482536,-0.626258,0.270013,0.931383,-2.27684,
3.96172,-92.549,-49.6252,54.4007,-0.0170566,0.557823,0.450819,-0.696638,-0.141428,0.366328,0.0530646,-9.80616,-5.64109,-4.31933,0.409687,0.0892164,0.183275,23.08,99.054,0.025,-0.240578,0.558888,0.206118,-0.252003,-0.13869,-0.101229,-0.102723,-0.124403,0.428211,0.270013,0.931383,-12.0706,-2.34506,-0.482536,-0.626258,0.270013,0.931383,-2.27684,
3.98701,-91.9225,-48.8669,53.7548,-0.0208886,0.552359,0.453799,-0.698949,-0.0163904,0.199439,-0.237778,-8.54623,-5.54077,-4.12261,0.404917,0.082453,0.189698,23.08,99.054,0.024999,-0.0417976,0.33633,-0.279727,-0.224091,-0.140265,-0.108181,-0.108604,-0.128227,0.422498,0.0629947,0.418391,-10.9798,-1.16975,-0.344994,-0.313577,0.0629947,0.418391,-1.18602,
4.01261,-91.9225,-48.8669,53.7548,-0.0208886,0.552359,0.453799,-0.698949,-0.0163904,0.199439,-0.237778,-8.54623,-5.54077,-4.12261,0.404917,0.082453,0.189698,23.08,99.054,0.024999,-0.0417976,0.33633,-0.279727,-0.224091,-0.140265,-0.108181,-0.108604,-0.128227,0.422498,0.0629947,0.418391,-10.9798,-1.16975,-0.344994,-0.313577,0.0629947,0.418391,-1.18602,
4.03789,-92.2425,-48.2266,53.9119,-0.0242972,0.550643,0.458067,-0.697407,-0.0393921,-0.057718,-0.15691,-6.33643,-4.98995,-3.72311,0.404089,0.0943107,0.184039,23.08,99.043,0.024999,-0.057738,0.00567798,-0.275464,-0.167043,-0.127147,-0.091846,-0.0982469,-0.127767,0.424353,0.0529153,-0.424015,-8.87294,0.967605,0.282538,0.11998,0.0529153,-0.424015,0.920811,
4.06322,-92.2425,-48.2266,53.9119,-0.0242972,0.550643,0.458067,-0.697407,-0.0393921,-0.057718,-0.15691,-6.33643,-4.98995,-3.72311,0.404089,0.0943107,0.184039,23.08,99.043,0.024999,-0.057738,0.00567798,-0.275464,-0.167043,-0.127147,-0.091846,-0.0982469,-0.127767,0.424353,0.0529153,-0.424015,-8.87294,0.967605,0.282538,0.11998,0.0529153,-0.424015,0.920811,
4.08848,-92.7019,-48.2976,54.1753,-0.0232448,0.552058,0.459251,-0.695543,-0.0145411,-0.0859246,0.0254772,-6.8575,-4.87625,-3.78969,0.404079,0.0923586,0.188458,23.08,99.054,0.024999,-0.0314218,-0.139329,0.0102491,-0.167515,-0.120957,-0.0974506,-0.10479,-0.125753,0.42489,0.216216,-0.0561869,-9.22578,0.454606,0.406519,0.0238211,0.216216,-0.0561869,0.567966,
4.11374,-92.7125,-48.3796,54.1567,-0.022568,0.552291,0.459011,-0.695539,-0.0265121,-0.0017831,0.0524685,-7.03331,-5.01312,-3.55699,0.405927,0.0893316,0.186383,23.08,99.054,0.025001,-0.0310027,-0.0530798,0.0701928,-0.175404,-0.123814,-0.0909633,-0.105002,-0.129066,0.424042,-0.0484812,0.0788887,-9.34036,0.288118,0.259925,0.252108,-0.0484812,0.0788887,0.453384,
4.13899,-92.7125,-48.3796,54.1567,-0.022568,0.552291,0.459011,-0.695539,-0.0265121,-0.0017831,0.0524685,-7.03331,-5.01312,-3.55699,0.405927,0.0893316,0.186383,23.08,99.054,0.025001,-0.0310027,-0.0530798,0.0701928,-0.175404,-0.123814,-0.0909633,-0.105002,-0.129066,0.424042,-0.0484812,0.0788887,-9.34036,0.288118,0.259925,0.252108,-0.0484812,0.0788887,0.453384,
4.16427,-92.4269,-48.5084,53.8534,-0.0212958,0.551502,0.458118,-0.696792,-0.020544,0.0133159,0.0917507,-7.09596,-5.31129,-3.90197,0.404982,0.0893488,0.185234,23.08,99.043,0.024999,-0.0433592,0.033668,0.130961,-0.173874,-0.131214,-0.0950435,-0.102396,-0.128197,0.42354,0.00800586,-0.236047,-9.68154,0.24007,-0.0717998,-0.0747301,0.00800586,-0.236047,0.11221,
4.18955,-92.4269,-48.5084,53.8534,-0.0212958,0.551502,0.458118,-0.696792,-0.020544,0.0133159,0.0917507,-7.09596,-5.31129,-3.90197,0.404982,0.0893488,0.185234,23.08,99.043,0.024999,-0.0433592,0.033668,0.130961,-0.173874,-0.131214,-0.0950435,-0.102396,-0.128197,0.42354,0.00800586,-0.236047,-9.68154,0.24007,-0.0717998,-0.0747301,0.00800586,-0.236047,0.11221,
4.2148,-92.0651,-48.6408,53.5166,-0.0201589,0.550589,0.4569,-0.698347,-0.0460159,0.0781676,0.0780475,-7.47021,-5.52775,-3.75908,0.404983,0.0883854,0.189644,23.08,99.065,0.025001,-0.0483728,0.0822031,0.126405,-0.185533,-0.137476,-0.0939061,-0.104532,-0.125942,0.42544,-0.266958,-0.067861,-10.0207,-0.119196,-0.324495,0.0888006,-0.266958,-0.067861,-0.226976,
4.24014,-91.7198,-48.7287,53.1143,-0.0188144,0.54926,0.456303,-0.69982,-0.0406838,-0.0104595,0.0716046,-7.39028,-5.36,-4.02235,0.401179,0.0855084,0.188379,23.08,99.054,0.025,-0.0703744,0.0196769,0.111405,-0.182817,-0.135236,-0.0986072,-0.103152,-0.125203,0.421221,-0.00482535,-0.161865,-9.97491,-0.0293454,-0.192909,-0.144809,-0.00482535,-0.161865,-0.181166,
4.26542,-91.7198,-48.7287,53.1143,-0.0188144,0.54926,0.456303,-0.69982,-0.0406838,-0.0104595,0.0716046,-7.39028,-5.36,-4.02235,0.401179,0.0855084,0.188379,23.08,99.054,0.025,-0.0703744,0.0196769,0.111405,-0.182817,-0.135236,-0.0986072,-0.103152,-0.125203,0.421221,-0.00482535,-0.161865,-9.97491,-0.0293454,-0.192909,-0.144809,-0.00482535,-0.161865,-0.181166,
4.29066,-91.6716,-48.8265,53.0346,-0.0179503,0.549306,0.455923,-0.700054,-0.0261892,-0.0316151,0.0608824,-7.62637,-5.25353,-4.08019,0.405911,0.0873664,0.188601,23.075,99.049,0.025,-0.0486806,-0.0332286,0.104674,-0.188708,-0.132658,-0.101158,-0.101886,-0.126398,0.426157,0.101324,0.0113825,-10.1192,-0.254425,-0.101879,-0.203019,0.101324,0.0113825,-0.325472,
4.3159,-91.6716,-48.8265,53.0346,-0.0179503,0.549306,0.455923,-0.700054,-0.0261892,-0.0316151,0.0608824,-7.62637,-5.25353,-4.08019,0.405911,0.0873664,0.188601,23.075,99.049,0.025,-0.0486806,-0.0332286,0.104674,-0.188708,-0.132658,-0.101158,-0.101886,-0.126398,0.426157,0.101324,0.0113825,-10.1192,-0.254425,-0.101879,-0.203019,0.101324,0.0113825,-0.325472,
4.342,-91.721,-48.9637,53.0556,-0.016988,0.549917,0.455466,-0.699895,0.0143338,-0.0410792,0.0104562,-7.49448,-4.94456,-4.07249,0.40219,0.0923938,0.186162,23.085,99.054,0.024999,0.00375649,-0.0535264,0.0350884,-0.188825,-0.124788,-0.100676,-0.0969325,-0.121099,0.42531,0.285612,0.0847533,-9.85456,-0.107122,0.194387,-0.207832,0.285612,0.0847533,-0.0608149,
4.36732,-91.721,-48.9637,53.0556,-0.016988,0.549917,0.455466,-0.699895,0.0143338,-0.0410792,0.0104562,-7.49448,-4.94456,-4.07249,0.40219,0.0923938,0.186162,23.085,99.054,0.024999,0.00375649,-0.0535264,0.0350884,-0.188825,-0.124788,-0.100676,-0.0969325,-0.121099,0.42531,0.285612,0.0847533,-9.85456,-0.107122,0.194387,-0.207832,0.285612,0.0847533,-0.0608149,
4.39262,-91.8684,-49.0164,53.26,-0.0171996,0.55095,0.455132,-0.699295,0.0354136,-0.0435947,-0.0142119,-7.33651,-5.08937,-3.89742,0.405876,0.0843936,0.187529,23.08,99.043,0.024999,0.0452578,-0.0451717,-0.009969,-0.18693,-0.125777,-0.097703,-0.103995,-0.127133,0.424319,0.0779171,-0.0296854,-9.74212,0.0567643,0.0578838,-0.0551792,0.0779171,-0.0296854,0.0516253,
4.41787,-92.076,-49.0958,53.6229,-0.0179179,0.55272,0.454269,-0.69844,0.102798,-0.0134203,-0.022562,-8.93405,-5.63758,-4.79798,0.403092,0.0884206,0.187347,23.08,99.043,0.024999,0.122004,-0.0482925,-0.00208495,-0.207122,-0.136665,-0.113883,-0.102902,-0.122508,0.424032,0.528749,0.249623,-11.5878,-1.53188,-0.474357,-0.994497,0.528749,0.249623,-1.7941,
4.44312,-92.076,-49.0958,53.6229,-0.0179179,0.55272,0.454269,-0.69844,0.102798,-0.0134203,-0.022562,-8.93405,-5.63758,-4.79798,0.403092,0.0884206,0.187347,23.08,99.043,0.024999,0.122004,-0.0482925,-0.00208495,-0.207122,-0.136665,-0.113883,-0.102902,-0.122508,0.424032,0.528749,0.249623,-11.5878,-1.53188,-0.474357,-0.994497,0.528749,0.249623,-1.7941,
4.46961,-92.0945,-48.907,53.8321,-0.0202805,0.552847,0.454281,-0.698267,0.169339,0.151337,-0.212832,-13.4679,-6.29893,-6.56507,0.404952,0.086389,0.186362,23.1,99.058,0.025001,0.191948,0.103195,-0.151067,-0.284258,-0.150014,-0.141947,-0.104176,-0.126998,0.423318,1.65828,2.04076,-16.0389,-6.08695,-1.10219,-2.7661,1.65828,2.04076,-6.2452,
4.49487,-92.0945,-48.907,53.8321,-0.0202805,0.552847,0.454281,-0.698267,0.169339,0.151337,-0.212832,-13.4679,-6.29893,-6.56507,0.404952,0.086389,0.186362,23.1,99.058,0.025001,0.191948,0.103195,-0.151067,-0.284258,-0.150014,-0.141947,-0.104176,-0.126998,0.423318,1.65828,2.04076,-16.0389,-6.08695,-1.10219,-2.7661,1.65828,2.04076,-6.2452,
4.52026,-94.1277,-46.8824,57.2824,-0.0439558,0.55978,0.459615,-0.688091,1.43215,-0.715251,-1.58305,-20.2142,-4.90241,-11.7067,0.402306,0.103271,0.186059,23.08,99.054,0.025,1.46267,-0.347397,-1.72192,-0.488982,-0.121751,-0.285377,-0.110405,-0.130536,0.421787,7.6263,5.65252,-21.8994,-13.0652,0.729553,-8.08862,7.6263,5.65252,-12.1056,
4.55016,-102.854,-40.7465,69.293,-0.108386,0.595241,0.479541,-0.635595,1.84282,-0.0641775,-3.77873,-13.9,-1.5301,2.4604,0.395548,0.181433,0.159641,23.08,99.054,0.025001,3.05586,-1.07487,-4.98368,-0.454878,-0.0330347,-0.0624563,-0.116867,-0.129292,0.42952,-0.510011,10.542,-9.49793,-7.50744,5.41037,5.08395,-0.510011,10.542,0.295813,
4.57542,-102.854,-40.7465,69.293,-0.108386,0.595241,0.479541,-0.635595,1.84282,-0.0641775,-3.77873,-13.9,-1.5301,2.4604,0.395548,0.181433,0.159641,23.08,99.054,0.025001,3.05586,-1.07487,-4.98368,-0.454878,-0.0330347,-0.0624563,-0.116867,-0.129292,0.42952,-0.510011,10.542,-9.49793,-7.50744,5.41037,5.08395,-0.510011,10.542,0.295813,
4.60075,-101.406,-35.1408,69.5581,-0.152528,0.577871,0.496917,-0.629186,-0.187826,3.99388,-2.77406,9.18171,-9.17282,16.9223,0.377131,0.216644,0.179254,23.08,99.054,0.024999,1.15427,3.04169,-4.83751,-0.00820725,-0.128441,0.255896,-0.121234,-0.13419,0.434269,-20.4744,-5.10537,3.08929,14.8189,-1.66843,19.7194,-20.4744,-5.10537,12.883,
4.62602,-101.406,-35.1408,69.5581,-0.152528,0.577871,0.496917,-0.629186,-0.187826,3.99388,-2.77406,9.18171,-9.17282,16.9223,0.377131,0.216644,0.179254,23.08,99.054,0.024999,1.15427,3.04169,-4.83751,-0.00820725,-0.128441,0.255896,-0.121234,-0.13419,0.434269,-20.4744,-5.10537,3.08929,14.8189,-1.66843,19.7194,-20.4744,-5.10537,12.883,
4.65134,-95.3269,-32.3739,61.7071,-0.154795,0.525247,0.513147,-0.660934,-1.45036,-2.86334,1.74248,21.3938,-7.14402,5.79158,0.350755,0.206718,0.226409,23.08,99.043,0.025,-2.4106,-0.69471,1.34785,0.612021,-0.235566,0.220014,-0.114063,-0.131293,0.432174,-10.3029,-19.093,8.46075,26.6378,0.13936,9.71211,-10.3029,-19.093,18.2545,
4.67659,-105.181,-47.3128,64.3094,-0.0263167,0.593589,0.486238,-0.640728,-1.17301,-4.75189,4.22665,-5.43605,1.83739,0.592441,0.414826,0.138288,0.140152,23.08,99.054,0.024999,-1.79573,-7.09223,5.76987,0.0134612,0.0379287,0.0262436,-0.102001,-0.122552,0.430609,1.58682,4.84504,-2.69913,1.763,7.82112,3.47101,1.58682,4.84504,7.09461,
4.70185,-105.181,-47.3128,64.3094,-0.0263167,0.593589,0.486238,-0.640728,-1.17301,-4.75189,4.22665,-5.43605,1.83739,0.592441,0.414826,0.138288,0.140152,23.08,99.054,0.024999,-1.79573,-7.09223,5.76987,0.0134612,0.0379287,0.0262436,-0.102001,-0.122552,0.430609,1.58682,4.84504,-2.69913,1.763,7.82112,3.47101,1.58682,4.84504,7.09461,
4.72711,-113.485,-61.3095,68.2263,0.0884142,0.634935,0.438767,-0.629701,-0.907432,-2.01176,3.07721,-20.5432,0.00267412,-4.45432,0.440044,0.0452583,0.0741595,23.08,99.054,0.024999,-1.33525,-3.98484,4.98795,-0.400149,-0.00386157,-0.0841719,-0.107645,-0.117053,0.419402,7.14831,6.06914,-18.813,-11.9518,4.369,-2.71024,7.14831,6.06914,-9.01927,
4.75236,-113.485,-61.3095,68.2263,0.0884142,0.634935,0.438767,-0.629701,-0.907432,-2.01176,3.07721,-20.5432,0.00267412,-4.45432,0.440044,0.0452583,0.0741595,23.08,99.054,0.024999,-1.33525,-3.98484,4.98795,-0.400149,-0.00386157,-0.0841719,-0.107645,-0.117053,0.419402,7.14831,6.06914,-18.813,-11.9518,4.369,-2.71024,7.14831,6.06914,-9.01927,
4.77762,-113.24,-64.5036,66.8196,0.115772,0.633938,0.427841,-0.633775,-0.75224,0.077088,1.35471,-29.4338,-1.75968,-8.79798,0.440702,0.0204743,0.067839,23.08,99.054,0.025,-1.19495,-1.11808,3.00212,-0.648876,-0.0468833,-0.177867,-0.108537,-0.115125,0.41738,9.98485,4.51003,-28.7544,-20.5939,2.11575,-7.13854,9.98485,4.51003,-18.9606,
4.80292,-105.88,-59.911,60.2886,0.0823672,0.607433,0.446783,-0.651634,0.86576,2.6465,-2.47692,-26.3419,2.25718,-11.9472,0.434356,0.0356796,0.102565,23.08,99.054,0.025,0.650606,3.40638,-2.64109,-0.723287,0.0413441,-0.29894,-0.108885,-0.121821,0.416847,13.7323,6.26066,-24.7781,-17.8679,6.52172,-9.51359,13.7323,6.26066,-14.9844,
4.82819,-105.88,-59.911,60.2886,0.0823672,0.607433,0.446783,-0.651634,0.86576,2.6465,-2.47692,-26.3419,2.25718,-11.9472,0.434356,0.0356796,0.102565,23.08,99.054,0.025,0.650606,3.40638,-2.64109,-0.723287,0.0413441,-0.29894,-0.108885,-0.121821,0.416847,13.7323,6.26066,-24.7781,-17.8679,6.52172,-9.51359,13.7323,6.26066,-14.9844,
4.85346,-103.474,-47.7159,63.1058,-0.0257344,0.589209,0.480852,-0.648808,1.90038,2.36755,-3.92527,-11.8586,4.46766,-1.39769,0.414705,0.124509,0.151282,23.08,99.054,0.025001,2.74459,3.35531,-5.4825,-0.374259,0.130383,-0.0796468,-0.110511,-0.123898,0.427558,5.61447,9.40936,-6.51784,-4.61304,10.3443,1.58295,5.61447,9.40936,3.2759,
4.87872,-103.474,-47.7159,63.1058,-0.0257344,0.589209,0.480852,-0.648808,1.90038,2.36755,-3.92527,-11.8586,4.46766,-1.39769,0.414705,0.124509,0.151282,23.08,99.054,0.025001,2.74459,3.35531,-5.4825,-0.374259,0.130383,-0.0796468,-0.110511,-0.123898,0.427558,5.61447,9.40936,-6.51784,-4.61304,10.3443,1.58295,5.61447,9.40936,3.2759,
4.90398,-99.9277,-36.1296,64.0742,-0.123153,0.555221,0.511228,-0.644367,0.482837,2.10438,-2.22457,10.9046,-8.2739,7.89246,0.372244,0.1961,0.19681,23.08,99.043,0.025,1.0651,3.67978,-3.90507,0.16811,-0.137049,0.155506,-0.11506,-0.128014,0.431426,-12.4792,-9.14586,3.20636,16.6791,-1.15972,11.3509,-12.4792,-9.14586,13.0001,
4.92922,-99.9277,-36.1296,64.0742,-0.123153,0.555221,0.511228,-0.644367,0.482837,2.10438,-2.22457,10.9046,-8.2739,7.89246,0.372244,0.1961,0.19681,23.08,99.043,0.025,1.0651,3.67978,-3.90507,0.16811,-0.137049,0.155506,-0.11506,-0.128014,0.431426,-12.4792,-9.14586,3.20636,16.6791,-1.15972,11.3509,-12.4792,-9.14586,13.0001,
4.95445,-99.5623,-33.8514,63.9624,-0.138617,0.546361,0.520068,-0.64172,-0.229272,0.117557,-0.697856,17.5547,-11.8697,8.10653,0.3649,0.212165,0.205078,23.085,99.043,0.025,0.0944395,1.26872,-1.90828,0.377282,-0.271654,0.205318,-0.114237,-0.129532,0.436342,-15.4,-16.2045,3.87686,23.0103,-4.56162,11.6769,-15.4,-16.2045,13.6706,
4.97978,-103.136,-38.6285,63.9146,-0.0906562,0.56571,0.518404,-0.634831,-0.913521,-2.74646,2.26962,11.0391,-8.30688,1.03384,0.387101,0.178811,0.181241,23.08,99.043,0.025,-1.28774,-3.36393,2.56487,0.345142,-0.239261,0.0698997,-0.116588,-0.129288,0.429373,-7.41517,-11.6163,1.41809,17.153,-1.43524,4.39805,-7.41517,-11.6163,11.2118,
5.00514,-103.136,-38.6285,63.9146,-0.0906562,0.56571,0.518404,-0.634831,-0.913521,-2.74646,2.26962,11.0391,-8.30688,1.03384,0.387101,0.178811,0.181241,23.08,99.043,0.025,-1.28774,-3.36393,2.56487,0.345142,-0.239261,0.0698997,-0.116588,-0.129288,0.429373,-7.41517,-11.6163,1.41809,17.153,-1.43524,4.39805,-7.41517,-11.6163,11.2118,
5.03036,-108.736,-50.212,65.606,0.00406943,0.606491,0.484713,-0.630242,-0.599294,-2.90919,3.37142,-5.41799,-2.54067,-1.65678,0.421223,0.121259,0.131848,23.08,99.043,0.024999,-0.979468,-4.30436,4.73344,-0.0664819,-0.0960733,-0.041885,-0.112175,-0.112805,0.429196,0.808904,0.954167,-6.08192,2.1077,3.16731,0.931755,0.808904,0.954167,3.71183,
5.05559,-108.736,-50.212,65.606,0.00406943,0.606491,0.484713,-0.630242,-0.599294,-2.90919,3.37142,-5.41799,-2.54067,-1.65678,0.421223,0.121259,0.131848,23.08,99.043,0.024999,-0.979468,-4.30436,4.73344,-0.0664819,-0.0960733,-0.041885,-0.112175,-0.112805,0.429196,0.808904,0.954167,-6.08192,2.1077,3.16731,0.931755,0.808904,0.954167,3.71183,
5.08117,-108.774,-59.3531,63.712,0.0748577,0.617671,0.447785,-0.642158,-0.853126,0.577361,1.99145,-28.5862,-1.90065,-4.54742,0.43549,0.055374,0.092528,23.08,99.054,0.025,-1.05665,-0.528481,3.59997,-0.592143,-0.069914,-0.0907538,-0.101678,-0.117551,0.42086,6.72352,9.72655,-26.4887,-20.1604,2.57536,-2.3364,6.72352,9.72655,-16.695,
5.10637,-103.835,-59.5574,58.4649,0.079701,0.600955,0.446579,-0.658079,-0.408362,1.80426,0.291848,-30.8509,1.05114,-11.0714,0.435309,0.0347042,0.109224,23.08,99.054,0.025,-0.995999,2.09971,1.40049,-0.771757,-0.022385,-0.204943,-0.107635,-0.123657,0.419227,12.4252,8.69247,-29.0777,-22.4074,5.28056,-8.47606,12.4252,8.69247,-19.284,
5.13159,-103.835,-59.5574,58.4649,0.079701,0.600955,0.446579,-0.658079,-0.408362,1.80426,0.291848,-30.8509,1.05114,-11.0714,0.435309,0.0347042,0.109224,23.08,99.054,0.025,-0.995999,2.09971,1.40049,-0.771757,-0.022385,-0.204943,-0.107635,-0.123657,0.419227,12.4252,8.69247,-29.0777,-22.4074,5.28056,-8.47606,12.4252,8.69247,-19.284,
5.15685,-99.9734,-54.2165,57.7764,0.0290748,0.585884,0.455384,-0.669716,1.78328,1.26461,-2.12309,-21.5799,4.8389,-6.1934,0.424371,0.0618765,0.140298,23.1,99.047,0.025001,2.11376,2.05543,-2.51568,-0.598765,0.136751,-0.200512,-0.10951,-0.127954,0.418615,9.99804,11.7053,-17.0437,-13.6349,9.68349,-3.13982,9.99804,11.7053,-7.24995,
5.1821,-99.9734,-54.2165,57.7764,0.0290748,0.585884,0.455384,-0.669716,1.78328,1.26461,-2.12309,-21.5799,4.8389,-6.1934,0.424371,0.0618765,0.140298,23.1,99.047,0.025001,2.11376,2.05543,-2.51568,-0.598765,0.136751,-0.200512,-0.10951,-0.127954,0.418615,9.99804,11.7053,-17.0437,-13.6349,9.68349,-3.13982,9.99804,11.7053,-7.24995,
5.20732,-101.337,-47.1265,63.5805,-0.0432321,0.588869,0.469156,-0.656702,1.05029,0.843518,-1.92047,-0.217418,-4.93124,4.62304,0.411927,0.126609,0.159922,23.09,99.058,0.025001,1.99696,1.23355,-3.13407,-0.0929905,-0.0580185,0.0982163,-0.1137,-0.125116,0.427443,-6.52152,-0.305041,-1.76453,6.96,1.03632,7.5879,-6.52152,-0.305041,8.02922,
5.23257,-101.337,-47.1265,63.5805,-0.0432321,0.588869,0.469156,-0.656702,1.05029,0.843518,-1.92047,-0.217418,-4.93124,4.62304,0.411927,0.126609,0.159922,23.09,99.058,0.025001,1.99696,1.23355,-3.13407,-0.0929905,-0.0580185,0.0982163,-0.1137,-0.125116,0.427443,-6.52152,-0.305041,-1.76453,6.96,1.03632,7.5879,-6.52152,-0.305041,8.02922,
5.25783,-101.599,-44.8651,64.7118,-0.0628521,0.587083,0.476014,-0.651762,0.450262,0.305025,-1.17661,4.98867,-9.71041,3.27976,0.404582,0.143637,0.16378,23.085,99.043,0.024999,0.939082,0.823482,-2.10611,0.0713087,-0.202154,0.0959617,-0.114269,-0.125369,0.427045,-8.72577,-7.13234,-1.71069,11.8976,-3.4341,6.24497,-8.72577,-7.13234,8.08305,
5.28319,-104.079,-44.3206,67.0828,-0.0668964,0.596849,0.480405,-0.639146,0.165216,-1.02614,0.0731702,6.18214,-15.9774,0.520001,0.408419,0.151414,0.157297,23.08,99.043,0.024999,0.253375,-1.18597,-0.156129,0.183904,-0.393169,0.0218032,-0.120307,-0.126501,0.428951,-10.0419,-12.4959,-6.06446,13.0248,-9.52357,3.24847,-10.0419,-12.4959,3.72929,
5.30842,-104.079,-44.3206,67.0828,-0.0668964,0.596849,0.480405,-0.639146,0.165216,-1.02614,0.0731702,6.18214,-15.9774,0.520001,0.408419,0.151414,0.157297,23.08,99.043,0.024999,0.253375,-1.18597,-0.156129,0.183904,-0.393169,0.0218032,-0.120307,-0.126501,0.428951,-10.0419,-12.4959,-6.06446,13.0248,-9.52357,3.24847,-10.0419,-12.4959,3.72929,
5.33365,-107.036,-46.0759,69.2922,-0.0521971,0.612068,0.476437,-0.629012,-0.184904,-0.471225,0.424399,0.288589,-11.9335,0.845577,0.413955,0.146178,0.132331,23.08,99.043,0.024999,-0.067701,-1.03984,0.531959,0.0205228,-0.330145,0.000476326,-0.114334,-0.127054,0.425469,-7.14189,-6.20465,-7.32827,7.34262,-5.57849,3.24794,-7.14189,-6.20465,2.46547,
5.35888,-107.036,-46.0759,69.2922,-0.0521971,0.612068,0.476437,-0.629012,-0.184904,-0.471225,0.424399,0.288589,-11.9335,0.845577,0.413955,0.146178,0.132331,23.08,99.043,0.024999,-0.067701,-1.03984,0.531959,0.0205228,-0.330145,0.000476326,-0.114334,-0.127054,0.425469,-7.14189,-6.20465,-7.32827,7.34262,-5.57849,3.24794,-7.14189,-6.20465,2.46547,
5.38413,-105.187,-47.7335,66.0192,-0.0331142,0.601851,0.475263,-0.640939,-1.0261,0.706825,0.909179,-6.19016,-3.65674,-2.99608,0.41579,0.139266,0.142393,23.08,99.043,0.024999,-1.25975,0.669313,1.20735,-0.0839306,-0.131868,-0.0404041,-0.108306,-0.118422,0.432202,1.41444,0.43438,-7.64703,1.05745,2.36175,-0.318885,1.41444,0.43438,2.14672,
5.40941,-102.146,-48.136,62.0648,-0.0239007,0.585754,0.476552,-0.655148,-1.23533,1.41973,0.800317,-14.4192,0.0622012,-6.01,0.412791,0.12062,0.154525,23.08,99.043,0.025001,-1.69973,1.65725,1.2623,-0.284041,-0.0408799,-0.120476,-0.108143,-0.122189,0.426847,6.81149,6.27424,-12.5807,-7.12549,5.83661,-2.94807,6.81149,6.27424,-2.78699,
5.43467,-102.146,-48.136,62.0648,-0.0239007,0.585754,0.476552,-0.655148,-1.23533,1.41973,0.800317,-14.4192,0.0622012,-6.01,0.412791,0.12062,0.154525,23.08,99.043,0.025001,-1.69973,1.65725,1.2623,-0.284041,-0.0408799,-0.120476,-0.108143,-0.122189,0.426847,6.81149,6.27424,-12.5807,-7.12549,5.83661,-2.94807,6.81149,6.27424,-2.78699,
5.45989,-98.212,-47.6234,56.773,-0.0162496,0.561315,0.482765,-0.672012,-0.350278,0.46443,-0.145553,-21.6474,4.91569,-8.94248,0.407959,0.105034,0.174234,23.08,99.043,0.025,-0.826374,0.815371,0.103645,-0.521479,0.109629,-0.204335,-0.10722,-0.125502,0.42494,12.0706,12.4113,-16.5228,-14.4125,10.4375,-5.32542,12.0706,12.4113,-6.72904,
5.48513,-98.212,-47.6234,56.773,-0.0162496,0.561315,0.482765,-0.672012,-0.350278,0.46443,-0.145553,-21.6474,4.91569,-8.94248,0.407959,0.105034,0.174234,23.08,99.043,0.025,-0.826374,0.815371,0.103645,-0.521479,0.109629,-0.204335,-0.10722,-0.125502,0.42494,12.0706,12.4113,-16.5228,-14.4125,10.4375,-5.32542,12.0706,12.4113,-6.72904,
5.51035,-97.6809,-45.0897,57.1254,-0.037103,0.554089,0.490068,-0.671895,0.728561,0.72866,-0.999553,-15.3909,3.17061,-8.21436,0.399634,0.117179,0.184689,23.08,99.043,0.024999,0.759581,0.954916,-1.25351,-0.440474,0.105041,-0.215045,-0.109592,-0.127945,0.423283,9.8249,8.35587,-12.1679,-8.45482,8.97772,-4.46122,9.8249,8.35587,-2.37418,
5.53569,-97.6809,-45.0897,57.1254,-0.037103,0.554089,0.490068,-0.671895,0.728561,0.72866,-0.999553,-15.3909,3.17061,-8.21436,0.399634,0.117179,0.184689,23.08,99.043,0.024999,0.759581,0.954916,-1.25351,-0.440474,0.105041,-0.215045,-0.109592,-0.127945,0.423283,9.8249,8.35587,-12.1679,-8.45482,8.97772,-4.46122,9.8249,8.35587,-2.37418,
5.5609,-98.1599,-42.0828,60.3089,-0.0725043,0.557615,0.491667,-0.664885,0.945738,0.0338814,-0.71141,0.0314701,-8.40845,0.141004,0.391513,0.149083,0.191658,23.1,99.058,0.025,1.48447,0.319122,-1.22533,-0.0640547,-0.147047,-0.0389871,-0.111606,-0.12558,0.428969,-4.93551,-4.21418,-5.34831,6.59527,-2.09407,3.74136,-4.93551,-4.21418,4.44544,
5.58618,-98.8186,-41.6393,61.7557,-0.0804685,0.562753,0.490505,-0.660484,0.544973,-0.271437,-0.254593,2.93149,-11.56,1.26364,0.393469,0.156914,0.18618,23.08,99.043,0.025,1.00414,-0.212883,-0.617237,0.0503987,-0.263899,0.0269971,-0.110721,-0.12821,0.430588,-7.81821,-7.44938,-5.21597,9.43883,-5.11216,4.72736,-7.81821,-7.44938,4.57778,
5.61142,-98.8186,-41.6393,61.7557,-0.0804685,0.562753,0.490505,-0.660484,0.544973,-0.271437,-0.254593,2.93149,-11.56,1.26364,0.393469,0.156914,0.18618,23.08,99.043,0.025,1.00414,-0.212883,-0.617237,0.0503987,-0.263899,0.0269971,-0.110721,-0.12821,0.430588,-7.81821,-7.44938,-5.21597,9.43883,-5.11216,4.72736,-7.81821,-7.44938,4.57778,
5.63674,-99.4047,-42.3489,62.5349,-0.0775476,0.568821,0.486648,-0.658485,-0.197275,-0.06158,0.406134,0.875188,-12.8701,-0.17685,0.395309,0.153861,0.179706,23.085,99.054,0.025,-0.0866897,-0.228862,0.458041,0.0534301,-0.326695,0.00823287,-0.11089,-0.127957,0.428447,-7.07289,-7.33729,-7.91038,7.47268,-6.44772,3.16143,-7.07289,-7.33729,1.88337,
5.66195,-99.4047,-42.3489,62.5349,-0.0775476,0.568821,0.486648,-0.658485,-0.197275,-0.06158,0.406134,0.875188,-12.8701,-0.17685,0.395309,0.153861,0.179706,23.085,99.054,0.025,-0.0866897,-0.228862,0.458041,0.0534301,-0.326695,0.00823287,-0.11089,-0.127957,0.428447,-7.07289,-7.33729,-7.91038,7.47268,-6.44772,3.16143,-7.07289,-7.33729,1.88337,
5.68717,-98.2023,-43.3351,60.4994,-0.0654444,0.5627,0.485031,-0.666207,-0.523243,0.26713,0.378278,-7.0022,-8.63481,-3.04738,0.396156,0.143974,0.184248,23.095,99.054,0.025,-0.717028,0.259921,0.630835,-0.126636,-0.242427,-0.0586397,-0.108505,-0.125692,0.429003,-1.73952,-0.854805,-11.3631,-0.281114,-2.43486,0.46047,-1.73952,-0.854805,-1.56938,
5.71238,-98.2023,-43.3351,60.4994,-0.0654444,0.5627,0.485031,-0.666207,-0.523243,0.26713,0.378278,-7.0022,-8.63481,-3.04738,0.396156,0.143974,0.184248,23.095,99.054,0.025,-0.717028,0.259921,0.630835,-0.126636,-0.242427,-0.0586397,-0.108505,-0.125692,0.429003,-1.73952,-0.854805,-11.3631,-0.281114,-2.43486,0.46047,-1.73952,-0.854805,-1.56938,
5.73753,-96.4724,-42.8859,58.0534,-0.0623839,0.549781,0.488915,-0.674397,-0.315448,0.520095,-0.108416,-8.61827,-5.7877,-4.9293,0.392321,0.135241,0.196239,23.08,99.043,0.024999,-0.54404,0.74425,-0.0422206,-0.224155,-0.15457,-0.120044,-0.109986,-0.127108,0.427156,1.24813,1.06357,-11.3746,-1.95323,0.301416,-1.13229,1.24813,1.06357,-1.58084,
5.76274,-95.7775,-42.3096,57.2249,-0.0644554,0.543764,0.49147,-0.677217,-0.218241,0.510967,-0.151141,-7.49704,-4.85897,-4.41772,0.391421,0.138257,0.200563,23.08,99.054,0.025,-0.361371,0.742118,-0.204464,-0.200717,-0.130963,-0.114991,-0.107217,-0.127985,0.429738,1.19777,1.06919,-9.83635,-0.904512,1.23066,-0.496961,1.19777,1.06919,-0.0426006,
5.78796,-95.7775,-42.3096,57.2249,-0.0644554,0.543764,0.49147,-0.677217,-0.218241,0.510967,-0.151141,-7.49704,-4.85897,-4.41772,0.391421,0.138257,0.200563,23.08,99.054,0.025,-0.361371,0.742118,-0.204464,-0.200717,-0.130963,-0.114991,-0.107217,-0.127985,0.429738,1.19777,1.06919,-9.83635,-0.904512,1.23066,-0.496961,1.19777,1.06919,-0.0426006,
5.81318,-94.6037,-41.6708,55.9507,-0.0664457,0.535226,0.493468,-0.682355,-0.10133,0.13571,0.123962,-5.74668,-4.75794,-4.77509,0.385751,0.135473,0.206901,23.08,99.054,0.025001,-0.207038,0.403649,0.089535,-0.151119,-0.116205,-0.114345,-0.106225,-0.128389,0.426846,1.27976,-0.209279,-8.76255,0.764686,1.30353,-0.678981,1.27976,-0.209279,1.0312,
5.83841,-94.6037,-41.6708,55.9507,-0.0664457,0.535226,0.493468,-0.682355,-0.10133,0.13571,0.123962,-5.74668,-4.75794,-4.77509,0.385751,0.135473,0.206901,23.08,99.054,0.025001,-0.207038,0.403649,0.089535,-0.151119,-0.116205,-0.114345,-0.106225,-0.128389,0.426846,1.27976,-0.209279,-8.76255,0.764686,1.30353,-0.678981,1.27976,-0.209279,1.0312,
5.86363,-94.7047,-42.6271,56.0185,-0.0603652,0.539197,0.489327,-0.682775,0.0404291,-0.331526,0.336114,-6.79547,-5.48693,-4.62675,0.390382,0.129381,0.200598,23.08,99.054,0.025001,0.0418312,-0.447226,0.456119,-0.16375,-0.135186,-0.116838,-0.10508,-0.130469,0.425809,0.78093,0.103663,-9.85246,-0.162908,0.488422,-0.599124,0.78093,0.103663,-0.0587158,
5.88889,-94.7129,-43.8385,56.1617,-0.0535603,0.544339,0.483039,-0.683739,0.0680007,-0.144716,0.331247,-7.41273,-5.79181,-4.44712,0.39319,0.127338,0.201861,23.08,99.054,0.025001,0.0755158,-0.268207,0.505113,-0.180255,-0.144769,-0.112255,-0.107319,-0.124094,0.429703,0.491684,0.259975,-10.3904,-0.629305,0.0757908,-0.513425,0.491684,0.259975,-0.596685,
5.91411,-94.7129,-43.8385,56.1617,-0.0535603,0.544339,0.483039,-0.683739,0.0680007,-0.144716,0.331247,-7.41273,-5.79181,-4.44712,0.39319,0.127338,0.201861,23.08,99.054,0.025001,0.0755158,-0.268207,0.505113,-0.180255,-0.144769,-0.112255,-0.107319,-0.124094,0.429703,0.491684,0.259975,-10.3904,-0.629305,0.0757908,-0.513425,0.491684,0.259975,-0.596685,
5.93933,-94.5059,-44.2395,56.1412,-0.0518995,0.545644,0.480015,-0.684956,0.0944752,-0.0192525,0.25925,-7.69499,-5.796,-3.963,0.394008,0.11835,0.190991,23.085,99.054,0.025,0.120104,-0.0982738,0.424659,-0.189162,-0.146078,-0.104808,-0.103334,-0.131764,0.421529,0.109791,0.607863,-10.3986,-0.862288,0.0306149,-0.0537564,0.109791,0.607863,-0.604827,
5.96456,-94.5059,-44.2395,56.1412,-0.0518995,0.545644,0.480015,-0.684956,0.0944752,-0.0192525,0.25925,-7.69499,-5.796,-3.963,0.394008,0.11835,0.190991,23.085,99.054,0.025,0.120104,-0.0982738,0.424659,-0.189162,-0.146078,-0.104808,-0.103334,-0.131764,0.421529,0.109791,0.607863,-10.3986,-0.862288,0.0306149,-0.0537564,0.109791,0.607863,-0.604827,
5.98979,-93.5361,-44.3274,55.6705,-0.053135,0.543565,0.476022,-0.689287,0.0368072,0.321671,0.100584,-7.48769,-5.68761,-3.46117,0.394053,0.121349,0.196463,23.08,99.054,0.025,0.0759091,0.392345,0.181069,-0.191433,-0.142754,-0.0861107,-0.10192,-0.128405,0.426293,-0.304783,0.730667,-9.98837,-0.644239,0.0980331,0.489888,-0.304783,0.730667,-0.19462,
6.01508,-93.5361,-44.3274,55.6705,-0.053135,0.543565,0.476022,-0.689287,0.0368072,0.321671,0.100584,-7.48769,-5.68761,-3.46117,0.394053,0.121349,0.196463,23.08,99.054,0.025,0.0759091,0.392345,0.181069,-0.191433,-0.142754,-0.0861107,-0.10192,-0.128405,0.426293,-0.304783,0.730667,-9.98837,-0.644239,0.0980331,0.489888,-0.304783,0.730667,-0.19462,
6.04031,-92.3119,-44.0444,54.8695,-0.0558453,0.538579,0.473741,-0.694538,0.00849964,0.237292,0.119222,-6.46204,-5.62831,-3.82408,0.392111,0.11355,0.207442,23.095,99.058,0.024999,0.017898,0.386782,0.153986,-0.163803,-0.139837,-0.0924138,-0.109647,-0.129982,0.425157,-0.114599,-0.0804968,-9.38295,0.346728,0.129111,0.226882,-0.114599,-0.0804968,0.410795,
6.06556,-91.8386,-44.0668,54.5388,-0.0559203,0.537071,0.472315,-0.696668,-0.00146775,0.1296,0.167977,-6.50395,-5.81606,-4.16069,0.389311,0.115613,0.209479,23.08,99.054,0.025001,-0.00473503,0.266153,0.223492,-0.161471,-0.14454,-0.100186,-0.107658,-0.126326,0.425749,0.00508857,-0.300568,-9.66172,0.30756,-0.0842764,-0.0781113,0.00508857,-0.300568,0.132023,
6.09092,-91.8386,-44.0668,54.5388,-0.0559203,0.537071,0.472315,-0.696668,-0.00146775,0.1296,0.167977,-6.50395,-5.81606,-4.16069,0.389311,0.115613,0.209479,23.08,99.054,0.025001,-0.00473503,0.266153,0.223492,-0.161471,-0.14454,-0.100186,-0.107658,-0.126326,0.425749,0.00508857,-0.300568,-9.66172,0.30756,-0.0842764,-0.0781113,0.00508857,-0.300568,0.132023,
6.11621,-91.4691,-44.503,54.3451,-0.0537678,0.537812,0.468935,-0.698546,0.0378048,-0.0670158,0.151469,-7.65547,-5.99636,-4.62365,0.391146,0.112559,0.203002,23.08,99.043,0.025,0.0429163,-0.0830946,0.255149,-0.183694,-0.148828,-0.114818,-0.102686,-0.129329,0.423797,0.265532,0.148872,-10.7633,-0.790586,-0.320716,-0.552061,0.265532,0.148872,-0.969528,
6.14151,-91.4691,-44.503,54.3451,-0.0537678,0.537812,0.468935,-0.698546,0.0378048,-0.0670158,0.151469,-7.65547,-5.99636,-4.62365,0.391146,0.112559,0.203002,23.08,99.043,0.025,0.0429163,-0.0830946,0.255149,-0.183694,-0.148828,-0.114818,-0.102686,-0.129329,0.423797,0.265532,0.148872,-10.7633,-0.790586,-0.320716,-0.552061,0.265532,0.148872,-0.969528,
6.16681,-91.4707,-44.6819,54.5034,-0.053616,0.539163,0.467363,-0.69857,0.0680276,-0.00493865,-0.0395556,-7.80184,-5.87066,-4.28851,0.388278,0.108683,0.203993,23.1,99.047,0.025001,0.0867925,-0.0254378,0.00894907,-0.197133,-0.147219,-0.110449,-0.106291,-0.127878,0.420159,0.0938194,0.433154,-10.655,-0.915177,-0.201268,-0.245087,0.0938194,0.433154,-0.86122,
6.19213,-91.6897,-44.4118,54.8328,-0.0562663,0.539555,0.468414,-0.697354,0.0349099,0.0292057,-0.138512,-6.82726,-5.78064,-3.37802,0.39112,0.109613,0.206328,23.08,99.054,0.025,0.0713124,0.0227516,-0.180029,-0.174983,-0.144629,-0.0886825,-0.109426,-0.130347,0.422607,-0.561609,0.225031,-9.54318,0.0265005,-0.0616263,0.651403,-0.561609,0.225031,0.250565,
6.21744,-91.6897,-44.4118,54.8328,-0.0562663,0.539555,0.468414,-0.697354,0.0349099,0.0292057,-0.138512,-6.82726,-5.78064,-3.37802,0.39112,0.109613,0.206328,23.08,99.054,0.025,0.0713124,0.0227516,-0.180029,-0.174983,-0.144629,-0.0886825,-0.109426,-0.130347,0.422607,-0.561609,0.225031,-9.54318,0.0265005,-0.0616263,0.651403,-0.561609,0.225031,0.250565,
6.2427,-91.7647,-44.2193,54.8815,-0.0574042,0.53904,0.469543,-0.6969,-0.0269222,0.0604171,-0.120858,-6.48547,-5.72493,-3.39514,0.392148,0.116536,0.210712,23.08,99.043,0.025,-0.00671586,0.0685153,-0.179795,-0.164538,-0.143525,-0.0825913,-0.10927,-0.126723,0.428674,-0.515405,0.0359399,-9.2788,0.344756,0.0163141,0.642635,-0.515405,0.0359399,0.514945,
6.26799,-91.7647,-44.2193,54.8815,-0.0574042,0.53904,0.469543,-0.6969,-0.0269222,0.0604171,-0.120858,-6.48547,-5.72493,-3.39514,0.392148,0.116536,0.210712,23.08,99.043,0.025,-0.00671586,0.0685153,-0.179795,-0.164538,-0.143525,-0.0825913,-0.10927,-0.126723,0.428674,-0.515405,0.0359399,-9.2788,0.344756,0.0163141,0.642635,-0.515405,0.0359399,0.514945,
6.29324,-91.7482,-43.9874,54.6858,-0.0577306,0.53732,0.471447,-0.696916,-0.0839843,0.046233,-0.00471003,-6.15378,-5.41961,-3.70039,0.392127,0.115522,0.206321,23.08,99.054,0.024999,-0.112293,0.0587429,-0.0381952,-0.152884,-0.136128,-0.0891362,-0.105614,-0.130674,0.425966,-0.117251,-0.125778,-8.99469,0.647969,0.330323,0.372926,-0.117251,-0.125778,0.799051,
6.31848,-91.7482,-43.9874,54.6858,-0.0577306,0.53732,0.471447,-0.696916,-0.0839843,0.046233,-0.00471003,-6.15378,-5.41961,-3.70039,0.392127,0.115522,0.206321,23.08,99.054,0.024999,-0.112293,0.0587429,-0.0381952,-0.152884,-0.136128,-0.0891362,-0.105614,-0.130674,0.425966,-0.117251,-0.125778,-8.99469,0.647969,0.330323,0.372926,-0.117251,-0.125778,0.799051,
6.34374,-91.4211,-44.0101,54.2072,-0.0562062,0.535277,0.47159,-0.698514,-0.0749908,0.0753705,0.0830261,-6.8178,-5.4581,-4.519,0.391182,0.114576,0.209582,23.075,99.054,0.024999,-0.123878,0.0949286,0.116811,-0.164753,-0.136198,-0.106623,-0.106222,-0.129015,0.426788,0.472965,-0.0205508,-9.82194,-0.0132474,0.255415,-0.399375,0.472965,-0.0205508,-0.0281916,
6.36902,-91.1095,-44.1199,53.9328,-0.0553064,0.534434,0.470458,-0.699993,0.0233778,0.0194561,0.0644776,-7.18357,-5.66932,-4.55629,0.390281,0.119519,0.205087,23.085,99.047,0.024999,0.00781201,0.0317469,0.111687,-0.176798,-0.140112,-0.116747,-0.0978903,-0.126993,0.427733,0.347117,0.0925823,-10.2164,-0.365542,0.0138519,-0.41704,0.347117,0.0925823,-0.422697,
6.39426,-91.1095,-44.1199,53.9328,-0.0553064,0.534434,0.470458,-0.699993,0.0233778,0.0194561,0.0644776,-7.18357,-5.66932,-4.55629,0.390281,0.119519,0.205087,23.085,99.047,0.024999,0.00781201,0.0317469,0.111687,-0.176798,-0.140112,-0.116747,-0.0978903,-0.126993,0.427733,0.347117,0.0925823,-10.2164,-0.365542,0.0138519,-0.41704,0.347117,0.0925823,-0.422697,
6.41951,-91.0212,-44.1529,53.9203,-0.055438,0.534472,0.469823,-0.700381,0.039098,0.0256274,0.0289971,-7.31267,-5.75932,-4.29271,0.390218,0.112622,0.209552,23.09,99.047,0.025,0.0457721,0.0336846,0.072287,-0.182282,-0.14317,-0.110169,-0.105347,-0.128752,0.425665,0.0819664,0.242012,-10.2473,-0.49059,-0.0802289,-0.154526,0.0819664,0.242012,-0.453547,
6.44479,-91.0212,-44.1529,53.9203,-0.055438,0.534472,0.469823,-0.700381,0.039098,0.0256274,0.0289971,-7.31267,-5.75932,-4.29271,0.390218,0.112622,0.209552,23.09,99.047,0.025,0.0457721,0.0336846,0.072287,-0.182282,-0.14317,-0.110169,-0.105347,-0.128752,0.425665,0.0819664,0.242012,-10.2473,-0.49059,-0.0802289,-0.154526,0.0819664,0.242012,-0.453547,
6.47009,-90.8752,-44.0522,53.8726,-0.0564495,0.533803,0.469621,-0.700945,-0.00660031,0.0479981,-0.0266881,-6.85459,-5.87148,-3.75193,0.388328,0.111687,0.210567,23.08,99.043,0.025,0.00508126,0.0845251,-0.0218145,-0.175818,-0.146415,-0.0956388,-0.106202,-0.128441,0.42407,-0.429815,0.0974519,-9.76435,-0.0448733,-0.186158,0.398037,-0.429815,0.0974519,0.0293961,
6.49536,-90.8853,-43.9903,53.7939,-0.0563034,0.533237,0.470337,-0.700908,-0.0368719,-0.0200255,-0.0117808,-6.65742,-5.66768,-4.07378,0.387388,0.111711,0.21052,23.08,99.054,0.025,-0.0572033,-0.00370286,-0.0126033,-0.16719,-0.143504,-0.100555,-0.105874,-0.128116,0.423373,-0.0616071,-0.0569029,-9.64534,0.144693,0.0178677,0.0883319,-0.0616071,-0.0569029,0.148406,
6.52062,-90.8853,-43.9903,53.7939,-0.0563034,0.533237,0.470337,-0.700908,-0.0368719,-0.0200255,-0.0117808,-6.65742,-5.66768,-4.07378,0.387388,0.111711,0.21052,23.08,99.054,0.025,-0.0572033,-0.00370286,-0.0126033,-0.16719,-0.143504,-0.100555,-0.105874,-0.128116,0.423373,-0.0616071,-0.0569029,-9.64534,0.144693,0.0178677,0.0883319,-0.0616071,-0.0569029,0.148406,
6.54591,-90.9103,-43.9541,53.7242,-0.0559845,0.532817,0.470982,-0.700819,-0.0212812,0.0271735,-0.0256148,-6.95317,-5.44257,-4.21931,0.390175,0.108654,0.207393,23.08,99.065,0.025001,-0.0409447,0.0277043,-0.0191779,-0.173547,-0.137433,-0.106063,-0.105039,-0.133266,0.42221,0.184891,0.224503,-9.78193,-0.15551,0.241379,-0.0477357,0.184891,0.224503,0.0118189,
6.57115,-90.9103,-43.9541,53.7242,-0.0559845,0.532817,0.470982,-0.700819,-0.0212812,0.0271735,-0.0256148,-6.95317,-5.44257,-4.21931,0.390175,0.108654,0.207393,23.08,99.065,0.025001,-0.0409447,0.0277043,-0.0191779,-0.173547,-0.137433,-0.106063,-0.105039,-0.133266,0.42221,0.184891,0.224503,-9.78193,-0.15551,0.241379,-0.0477357,0.184891,0.224503,0.0118189,
6.59673,-90.8951,-43.8947,53.6916,-0.0562223,0.532437,0.471317,-0.700864,-0.0127286,0.0301272,-0.0309518,-6.79301,-5.40114,-4.14873,0.38836,0.113684,0.21385,23.095,99.043,0.025,-0.0252758,0.0457307,-0.0331479,-0.171729,-0.135403,-0.104251,-0.107009,-0.126889,0.42653,0.147734,0.171907,-9.61654,-0.00266254,0.286108,0.0302576,0.147734,0.171907,0.177208,
6.62201,-90.8951,-43.8947,53.6916,-0.0562223,0.532437,0.471317,-0.700864,-0.0127286,0.0301272,-0.0309518,-6.79301,-5.40114,-4.14873,0.38836,0.113684,0.21385,23.095,99.043,0.025,-0.0252758,0.0457307,-0.0331479,-0.171729,-0.135403,-0.104251,-0.107009,-0.126889,0.42653,0.147734,0.171907,-9.61654,-0.00266254,0.286108,0.0302576,0.147734,0.171907,0.177208,
6.64725,-90.8474,-43.8092,53.6164,-0.0565119,0.531761,0.47177,-0.701049,-0.0146509,0.0194752,-0.00213413,-6.56563,-5.61276,-4.27072,0.387418,0.115635,0.204984,23.08,99.054,0.024999,-0.0275611,0.0413809,-0.00508615,-0.164931,-0.1389,-0.105088,-0.0983581,-0.12952,0.423123,0.106641,-0.145309,-9.63416,0.214185,0.0771442,-0.0782761,0.106641,-0.145309,0.159582,
6.6725,-90.875,-43.8426,53.6167,-0.0561799,0.53191,0.471782,-0.700954,-0.00953293,-0.00690548,0.00198564,-6.95198,-5.74396,-4.09426,0.39026,0.114631,0.215039,23.08,99.054,0.024999,-0.00848668,-0.024425,0.0151498,-0.172897,-0.142721,-0.105461,-0.107084,-0.127571,0.428886,-0.109094,0.130349,-9.90238,-0.168052,-0.057214,0.09581,-0.109094,0.130349,-0.108637,
6.69773,-90.875,-43.8426,53.6167,-0.0561799,0.53191,0.471782,-0.700954,-0.00953293,-0.00690548,0.00198564,-6.95198,-5.74396,-4.09426,0.39026,0.114631,0.215039,23.08,99.054,0.024999,-0.00848668,-0.024425,0.0151498,-0.172897,-0.142721,-0.105461,-0.107084,-0.127571,0.428886,-0.109094,0.130349,-9.90238,-0.168052,-0.057214,0.09581,-0.109094,0.130349,-0.108637,
6.72299,-90.8468,-43.8263,53.5632,-0.0560835,0.53161,0.471934,-0.701087,-0.0341786,0.0326384,-0.00140273,-6.91851,-5.7596,-3.97348,0.388394,0.116651,0.213824,23.09,99.054,0.025001,-0.0371426,0.0279401,0.00688613,-0.173941,-0.14413,-0.100188,-0.104611,-0.125742,0.42828,-0.221902,0.151672,-9.83641,-0.13659,-0.0752167,0.223049,-0.221902,0.151672,-0.0426674,
6.74823,-90.8468,-43.8263,53.5632,-0.0560835,0.53161,0.471934,-0.701087,-0.0341786,0.0326384,-0.00140273,-6.91851,-5.7596,-3.97348,0.388394,0.116651,0.213824,23.09,99.054,0.025001,-0.0371426,0.0279401,0.00688613,-0.173941,-0.14413,-0.100188,-0.104611,-0.125742,0.42828,-0.221902,0.151672,-9.83641,-0.13659,-0.0752167,0.223049,-0.221902,0.151672,-0.0426674,
6.7735,-90.7905,-43.8247,53.3978,-0.0553434,0.530895,0.472363,-0.701399,-0.0372465,-0.0224887,0.0198485,-6.65501,-5.75523,-4.36658,0.388419,0.120561,0.206087,23.08,99.054,0.025,-0.0661443,-0.00596271,0.0296307,-0.16501,-0.144028,-0.105687,-0.0953189,-0.126818,0.427443,0.071106,-0.201857,-9.82003,0.126711,-0.0828247,-0.153549,0.071106,-0.201857,-0.0262823,
6.79872,-90.9283,-43.936,53.486,-0.0545555,0.531773,0.472282,-0.70085,0.0200129,-0.0474057,-0.00958421,-7.02174,-5.65656,-4.40197,0.39115,0.110626,0.210725,23.08,99.043,0.025001,0.0157244,-0.0789279,0.00934772,-0.174468,-0.141777,-0.112889,-0.105678,-0.131287,0.42572,0.1735,0.0818458,-10.032,-0.226301,0.0117163,-0.205521,0.1735,0.0818458,-0.238301,
6.82394,-90.9283,-43.936,53.486,-0.0545555,0.531773,0.472282,-0.70085,0.0200129,-0.0474057,-0.00958421,-7.02174,-5.65656,-4.40197,0.39115,0.110626,0.210725,23.08,99.043,0.025001,0.0157244,-0.0789279,0.00934772,-0.174468,-0.141777,-0.112889,-0.105678,-0.131287,0.42572,0.1735,0.0818458,-10.032,-0.226301,0.0117163,-0.205521,0.1735,0.0818458,-0.238301,
6.84919,-90.9812,-43.8342,53.5421,-0.0552826,0.53162,0.472818,-0.700548,-0.00333213,0.0186574,-0.0486994,-6.71121,-5.61436,-4.1402,0.389378,0.121545,0.209425,23.08,99.043,0.025,-0.00409189,0.0394913,-0.0589915,-0.170868,-0.140657,-0.102523,-0.0983738,-0.125317,0.429961,-0.0061245,0.00994778,-9.68001,0.0716748,0.0677316,0.0578672,-0.0061245,0.00994778,0.113741,
6.87442,-90.9812,-43.8342,53.5421,-0.0552826,0.53162,0.472818,-0.700548,-0.00333213,0.0186574,-0.0486994,-6.71121,-5.61436,-4.1402,0.389378,0.121545,0.209425,23.08,99.043,0.025,-0.00409189,0.0394913,-0.0589915,-0.170868,-0.140657,-0.102523,-0.0983738,-0.125317,0.429961,-0.0061245,0.00994778,-9.68001,0.0716748,0.0677316,0.0578672,-0.0061245,0.00994778,0.113741,
6.89965,-91.0321,-43.7807,53.5711,-0.0555547,0.531549,0.473242,-0.700294,-0.00571212,-0.00830488,-0.0402739,-6.48449,-5.66228,-4.18655,0.392128,0.113582,0.212945,23.1,99.058,0.025,-0.00919394,0.00392648,-0.0567149,-0.163524,-0.141427,-0.104563,-0.106254,-0.130499,0.428592,0.00263548,-0.190609,-9.57083,0.291796,0.0270291,0.0124063,0.00263548,-0.190609,0.222914,
6.92487,-91.0321,-43.7807,53.5711,-0.0555547,0.531549,0.473242,-0.700294,-0.00571212,-0.00830488,-0.0402739,-6.48449,-5.66228,-4.18655,0.392128,0.113582,0.212945,23.1,99.058,0.025,-0.00919394,0.00392648,-0.0567149,-0.163524,-0.141427,-0.104563,-0.106254,-0.130499,0.428592,0.00263548,-0.190609,-9.57083,0.291796,0.0270291,0.0124063,0.00263548,-0.190609,0.222914,
6.95012,-91.1343,-43.7363,53.6237,-0.0556768,0.531639,0.473827,-0.699821,-0.00180397,-0.00548928,-0.025939,-6.76876,-5.69833,-4.27802,0.390262,0.115601,0.211729,23.085,99.054,0.024999,-0.00938356,-0.014499,-0.0275247,-0.167504,-0.142482,-0.107205,-0.10448,-0.128772,0.427784,0.0640941,-0.0365826,-9.82767,0.00205895,-0.000950545,-0.0811902,0.0640941,-0.0365826,-0.0339212,
6.97536,-91.181,-43.678,53.6509,-0.0559867,0.53154,0.474256,-0.69958,-0.00340888,0.0129589,-0.0185181,-6.64183,-5.72597,-4.29269,0.3893,0.113654,0.212799,23.095,99.054,0.025,-0.00631899,0.0155411,-0.021909,-0.167178,-0.142619,-0.105383,-0.106713,-0.129061,0.426276,0.0607543,-0.13974,-9.76241,0.121781,-0.02105,-0.0944823,0.0607543,-0.13974,0.0313396,
7.00066,-91.181,-43.678,53.6509,-0.0559867,0.53154,0.474256,-0.69958,-0.00340888,0.0129589,-0.0185181,-6.64183,-5.72597,-4.29269,0.3893,0.113654,0.212799,23.095,99.054,0.025,-0.00631899,0.0155411,-0.021909,-0.167178,-0.142619,-0.105383,-0.106713,-0.129061,0.426276,0.0607543,-0.13974,-9.76241,0.121781,-0.02105,-0.0944823,0.0607543,-0.13974,0.0313396,
7.02589,-91.2257,-43.6672,53.7267,-0.0563086,0.531832,0.474228,-0.699351,0.0354875,-0.0194883,-0.0103648,-6.97004,-5.79511,-4.5296,0.390262,0.115608,0.212828,23.08,99.043,0.024999,0.0361263,-0.0277915,-0.00258714,-0.16993,-0.143903,-0.112381,-0.105963,-0.128768,0.427967,0.222391,-0.0391688,-10.1307,-0.207769,-0.0836132,-0.338185,0.222391,-0.0391688,-0.336952,
7.05119,-91.2257,-43.6672,53.7267,-0.0563086,0.531832,0.474228,-0.699351,0.0354875,-0.0194883,-0.0103648,-6.97004,-5.79511,-4.5296,0.390262,0.115608,0.212828,23.08,99.043,0.024999,0.0361263,-0.0277915,-0.00258714,-0.16993,-0.143903,-0.112381,-0.105963,-0.128768,0.427967,0.222391,-0.0391688,-10.1307,-0.207769,-0.0836132,-0.338185,0.222391,-0.0391688,-0.336952,
7.07642,-91.2657,-43.6401,53.8156,-0.0568336,0.532111,0.474184,-0.699126,0.04601,0.0104739,-0.0399266,-7.14025,-5.84553,-4.52868,0.387433,0.115673,0.211583,23.08,99.054,0.025,0.0591829,-0.00667773,-0.0308137,-0.176974,-0.145193,-0.113378,-0.105322,-0.127446,0.425343,0.205495,0.0615811,-10.277,-0.381332,-0.12495,-0.344251,0.205495,0.0615811,-0.483234,
7.10161,-91.2171,-43.334,53.8834,-0.0593669,0.53114,0.474989,-0.699107,0.0233568,0.12413,-0.118614,-7.3194,-5.95293,-4.39019,0.3893,0.115587,0.205079,23.08,99.054,0.025,0.0368726,0.149069,-0.134347,-0.183872,-0.148051,-0.107075,-0.100405,-0.13403,0.422997,0.0428958,0.247101,-10.403,-0.598436,-0.198325,-0.191301,0.0428958,0.247101,-0.609225,
7.12683,-91.2171,-43.334,53.8834,-0.0593669,0.53114,0.474989,-0.699107,0.0233568,0.12413,-0.118614,-7.3194,-5.95293,-4.39019,0.3893,0.115587,0.205079,23.08,99.054,0.025,0.0368726,0.149069,-0.134347,-0.183872,-0.148051,-0.107075,-0.100405,-0.13403,0.422997,0.0428958,0.247101,-10.403,-0.598436,-0.198325,-0.191301,0.0428958,0.247101,-0.609225,
7.15206,-91.4457,-42.8994,54.2208,-0.063054,0.53092,0.476827,-0.697699,0.0917235,-0.0206899,-0.1775,-6.8746,-5.80423,-4.26034,0.385595,0.119689,0.213649,23.08,99.054,0.025,0.119217,-0.00391881,-0.234469,-0.170958,-0.144104,-0.11027,-0.106631,-0.128691,0.425116,0.0661738,0.13343,-9.95377,-0.207868,0.0161898,-0.0657246,0.0661738,0.13343,-0.160027,
7.17728,-91.4457,-42.8994,54.2208,-0.063054,0.53092,0.476827,-0.697699,0.0917235,-0.0206899,-0.1775,-6.8746,-5.80423,-4.26034,0.385595,0.119689,0.213649,23.08,99.054,0.025,0.119217,-0.00391881,-0.234469,-0.170958,-0.144104,-0.11027,-0.106631,-0.128691,0.425116,0.0661738,0.13343,-9.95377,-0.207868,0.0161898,-0.0657246,0.0661738,0.13343,-0.160027,
7.20246,-91.6016,-42.2882,54.4604,-0.0675747,0.529559,0.479485,-0.696488,-0.00224878,0.199722,-0.214615,-6.84474,-5.9668,-3.87107,0.386584,0.124597,0.211449,23.08,99.054,0.025001,0.0251824,0.222386,-0.288079,-0.173869,-0.14787,-0.0956,-0.103372,-0.132227,0.426043,-0.310332,0.291386,-9.8619,-0.254914,-0.0713464,0.340272,-0.310332,0.291386,-0.0681515,
7.22767,-91.6016,-42.2882,54.4604,-0.0675747,0.529559,0.479485,-0.696488,-0.00224878,0.199722,-0.214615,-6.84474,-5.9668,-3.87107,0.386584,0.124597,0.211449,23.08,99.054,0.025001,0.0251824,0.222386,-0.288079,-0.173869,-0.14787,-0.0956,-0.103372,-0.132227,0.426043,-0.310332,0.291386,-9.8619,-0.254914,-0.0713464,0.340272,-0.310332,0.291386,-0.0681515,
7.25291,-91.5359,-41.8725,54.3941,-0.0700486,0.527568,0.481302,-0.696501,-0.0161142,0.17716,-0.213297,-6.23679,-5.88612,-4.0662,0.382867,0.127704,0.21893,23.08,99.054,0.025,-0.0246758,0.282799,-0.302035,-0.162787,-0.14757,-0.0989335,-0.107115,-0.127889,0.427781,-0.124403,-0.127053,-9.48927,0.300284,0.0431776,0.179685,-0.124403,-0.127053,0.304471,
7.27843,-91.6777,-41.3152,54.462,-0.0732586,0.525691,0.484401,-0.695441,-0.00491042,0.0194189,-0.148115,-5.78485,-5.84039,-4.03255,0.381042,0.134635,0.212169,23.085,99.047,0.024999,-0.0108698,0.0627155,-0.226873,-0.14739,-0.14588,-0.101381,-0.0982302,-0.12963,0.426477,-0.123178,-0.33664,-9.14919,0.680986,0.145397,0.243054,-0.123178,-0.33664,0.644561,
7.30361,-91.6777,-41.3152,54.462,-0.0732586,0.525691,0.484401,-0.695441,-0.00491042,0.0194189,-0.148115,-5.78485,-5.84039,-4.03255,0.381042,0.134635,0.212169,23.085,99.047,0.024999,-0.0108698,0.0627155,-0.226873,-0.14739,-0.14588,-0.101381,-0.0982302,-0.12963,0.426477,-0.123178,-0.33664,-9.14919,0.680986,0.145397,0.243054,-0.123178,-0.33664,0.644561,
7.32882,-91.8078,-41.0458,54.4767,-0.074419,0.524746,0.486352,-0.694669,-0.0378059,0.0315499,-0.047182,-5.43693,-5.7653,-3.99225,0.382927,0.132661,0.221084,23.085,99.043,0.025,-0.0511103,0.0505283,-0.095348,-0.138268,-0.144971,-0.100809,-0.107017,-0.130234,0.429764,-0.116477,-0.50056,-8.85849,0.994247,0.246257,0.299444,-0.116477,-0.50056,0.935259,
7.3541,-91.8078,-41.0458,54.4767,-0.074419,0.524746,0.486352,-0.694669,-0.0378059,0.0315499,-0.047182,-5.43693,-5.7653,-3.99225,0.382927,0.132661,0.221084,23.085,99.043,0.025,-0.0511103,0.0505283,-0.095348,-0.138268,-0.144971,-0.100809,-0.107017,-0.130234,0.429764,-0.116477,-0.50056,-8.85849,0.994247,0.246257,0.299444,-0.116477,-0.50056,0.935259,
7.37932,-91.7861,-41.0257,54.3978,-0.0741645,0.524315,0.486672,-0.694797,-0.0481776,0.0050498,0.0232839,-5.32471,-5.70842,-3.91953,0.381002,0.129723,0.217715,23.08,99.043,0.025,-0.0675496,0.0266429,0.0014428,-0.134028,-0.143592,-0.0989829,-0.105659,-0.131776,0.425278,-0.152665,-0.522809,-8.71807,1.10388,0.299043,0.381741,-0.152665,-0.522809,1.07568,
7.40462,-91.5849,-41.2117,54.0628,-0.0718996,0.523521,0.486137,-0.696008,-0.0859572,0.0130643,0.107465,-5.97089,-5.73412,-3.86672,0.38287,0.128674,0.215621,23.09,99.031,0.025001,-0.118818,0.0168689,0.15609,-0.146407,-0.143687,-0.0976624,-0.102785,-0.133219,0.425825,-0.236249,-0.055674,-9.13369,0.481653,0.231161,0.457336,-0.236249,-0.055674,0.660051,
7.42986,-91.5849,-41.2117,54.0628,-0.0718996,0.523521,0.486137,-0.696008,-0.0859572,0.0130643,0.107465,-5.97089,-5.73412,-3.86672,0.38287,0.128674,0.215621,23.09,99.031,0.025001,-0.118818,0.0168689,0.15609,-0.146407,-0.143687,-0.0976624,-0.102785,-0.133219,0.425825,-0.236249,-0.055674,-9.13369,0.481653,0.231161,0.457336,-0.236249,-0.055674,0.660051,
7.45518,-91.1677,-41.3909,53.4613,-0.0690346,0.521448,0.485527,-0.698277,-0.153155,0.0971539,0.124364,-6.24032,-5.83737,-3.31258,0.381916,0.126745,0.21999,23.08,99.043,0.025001,-0.190291,0.104368,0.179611,-0.154893,-0.145633,-0.0865729,-0.103973,-0.130496,0.427177,-0.808059,0.293069,-9.12419,0.23524,0.0659469,1.06182,-0.808059,0.293069,0.669556,
7.48041,-91.1677,-41.3909,53.4613,-0.0690346,0.521448,0.485527,-0.698277,-0.153155,0.0971539,0.124364,-6.24032,-5.83737,-3.31258,0.381916,0.126745,0.21999,23.08,99.043,0.025001,-0.190291,0.104368,0.179611,-0.154893,-0.145633,-0.0865729,-0.103973,-0.130496,0.427177,-0.808059,0.293069,-9.12419,0.23524,0.0659469,1.06182,-0.808059,0.293069,0.669556,
7.50564,-90.3482,-41.4596,52.2551,-0.064949,0.516143,0.485668,-0.702499,-0.271111,0.171755,0.162625,-6.60727,-5.83233,-4.32447,0.380872,0.116894,0.222234,23.08,99.054,0.025,-0.378392,0.25459,0.236245,-0.16354,-0.147359,-0.099485,-0.104988,-0.133528,0.423395,-0.149801,0.146365,-9.81474,-0.122908,-0.0285366,0.168473,-0.149801,0.146365,-0.020999,
7.53088,-90.3482,-41.4596,52.2551,-0.064949,0.516143,0.485668,-0.702499,-0.271111,0.171755,0.162625,-6.60727,-5.83233,-4.32447,0.380872,0.116894,0.222234,23.08,99.054,0.025,-0.378392,0.25459,0.236245,-0.16354,-0.147359,-0.099485,-0.104988,-0.133528,0.423395,-0.149801,0.146365,-9.81474,-0.122908,-0.0285366,0.168473,-0.149801,0.146365,-0.020999,
7.55626,-89.9549,-41.5282,51.6262,-0.0624333,0.513548,0.485771,-0.704554,-0.238425,0.0945717,0.162829,-6.76291,-5.78806,-5.06969,0.37996,0.117952,0.229877,23.08,99.054,0.025,-0.371699,0.191269,0.244485,-0.167179,-0.146113,-0.120034,-0.106894,-0.128614,0.42797,0.381384,-0.0318005,-10.2369,-0.269769,-0.0400286,-0.518137,0.381384,-0.0318005,-0.443147,
7.58152,-89.5961,-41.8255,50.8871,-0.0576608,0.511495,0.485538,-0.706613,-0.128073,-0.0463388,0.112413,-7.12187,-5.68139,-5.29028,0.380861,0.114935,0.225555,23.08,99.043,0.024999,-0.216774,-0.0288875,0.188679,-0.178121,-0.143493,-0.131757,-0.101587,-0.13017,0.426469,0.519625,0.145487,-10.5212,-0.590779,-0.0187656,-0.686265,0.519625,0.145487,-0.72743,
7.60677,-89.5961,-41.8255,50.8871,-0.0576608,0.511495,0.485538,-0.706613,-0.128073,-0.0463388,0.112413,-7.12187,-5.68139,-5.29028,0.380861,0.114935,0.225555,23.08,99.043,0.024999,-0.216774,-0.0288875,0.188679,-0.178121,-0.143493,-0.131757,-0.101587,-0.13017,0.426469,0.519625,0.145487,-10.5212,-0.590779,-0.0187656,-0.686265,0.519625,0.145487,-0.72743,
7.63202,-89.5863,-42.104,50.6034,-0.0542453,0.51148,0.485499,-0.70692,-0.0845695,-0.0536511,0.0427859,-7.06672,-5.60594,-4.8409,0.382698,0.109956,0.227898,23.08,99.054,0.024999,-0.131447,-0.0749995,0.0929374,-0.177792,-0.141044,-0.122532,-0.105385,-0.130748,0.426948,0.180887,0.279714,-10.2317,-0.500218,0.00921312,-0.229116,0.180887,0.279714,-0.437992,
7.65728,-89.5863,-42.104,50.6034,-0.0542453,0.51148,0.485499,-0.70692,-0.0845695,-0.0536511,0.0427859,-7.06672,-5.60594,-4.8409,0.382698,0.109956,0.227898,23.08,99.054,0.024999,-0.131447,-0.0749995,0.0929374,-0.177792,-0.141044,-0.122532,-0.105385,-0.130748,0.426948,0.180887,0.279714,-10.2317,-0.500218,0.00921312,-0.229116,0.180887,0.279714,-0.437992,
7.68253,-89.6709,-42.1783,50.3951,-0.0521273,0.510954,0.486619,-0.70669,-0.110259,-0.000115047,-0.0190637,-6.68357,-5.59137,-4.35496,0.383605,0.106959,0.226874,23.08,99.043,0.024999,-0.149441,-0.0186358,-0.00337532,-0.170243,-0.140123,-0.110108,-0.105853,-0.132442,0.425816,-0.210245,0.195119,-9.7374,-0.107652,0.000421949,0.271773,-0.210245,0.195119,0.0563488,
7.70776,-89.6915,-42.146,50.2306,-0.0512193,0.510126,0.487623,-0.706663,-0.135557,0.013473,-0.0263949,-6.41773,-5.52239,-4.22908,0.382673,0.108935,0.222406,23.09,99.058,0.025,-0.181813,0.0107665,-0.0259605,-0.162802,-0.138327,-0.106958,-0.100549,-0.132618,0.42435,-0.282598,0.0932304,-9.45942,0.15409,0.0589438,0.416066,-0.282598,0.0932304,0.334328,
7.73298,-89.6915,-42.146,50.2306,-0.0512193,0.510126,0.487623,-0.706663,-0.135557,0.013473,-0.0263949,-6.41773,-5.52239,-4.22908,0.382673,0.108935,0.222406,23.09,99.058,0.025,-0.181813,0.0107665,-0.0259605,-0.162802,-0.138327,-0.106958,-0.100549,-0.132618,0.42435,-0.282598,0.0932304,-9.45942,0.15409,0.0589438,0.416066,-0.282598,0.0932304,0.334328,
7.75821,-89.6152,-42.0353,49.7289,-0.0491436,0.507476,0.489872,-0.707163,-0.155878,0.019994,-0.00234088,-6.03454,-5.36316,-4.6728,0.381732,0.107996,0.226768,23.08,99.043,0.025,-0.234841,0.0592298,-0.00756786,-0.153136,-0.135346,-0.114916,-0.102337,-0.13089,0.425677,0.100435,-0.279783,-9.3234,0.523237,0.186969,0.0292324,0.100435,-0.279783,0.470344,
7.78347,-89.6152,-42.0353,49.7289,-0.0491436,0.507476,0.489872,-0.707163,-0.155878,0.019994,-0.00234088,-6.03454,-5.36316,-4.6728,0.381732,0.107996,0.226768,23.08,99.043,0.025,-0.234841,0.0592298,-0.00756786,-0.153136,-0.135346,-0.114916,-0.102337,-0.13089,0.425677,0.100435,-0.279783,-9.3234,0.523237,0.186969,0.0292324,0.100435,-0.279783,0.470344,
7.8087,-89.4414,-42,49.1671,-0.0466587,0.504845,0.491435,-0.708128,-0.152511,0.0654105,0.0308162,-6.39969,-5.46646,-4.92455,0.382639,0.104035,0.230154,23.09,99.058,0.025,-0.226812,0.0858433,0.0472834,-0.15993,-0.136855,-0.122153,-0.104833,-0.132019,0.426366,0.153353,-0.164725,-9.74879,0.153605,0.0403463,-0.165683,0.153353,-0.164725,0.044961,
7.83392,-89.4414,-42,49.1671,-0.0466587,0.504845,0.491435,-0.708128,-0.152511,0.0654105,0.0308162,-6.39969,-5.46646,-4.92455,0.382639,0.104035,0.230154,23.09,99.058,0.025,-0.226812,0.0858433,0.0472834,-0.15993,-0.136855,-0.122153,-0.104833,-0.132019,0.426366,0.153353,-0.164725,-9.74879,0.153605,0.0403463,-0.165683,0.153353,-0.164725,0.044961,
7.85914,-89.0872,-41.8972,48.5215,-0.0448498,0.501482,0.492531,-0.709871,-0.127241,0.0847734,0.0312705,-6.48694,-5.50265,-5.0855,0.381642,0.0981455,0.233462,23.08,99.043,0.025,-0.199742,0.146373,0.0544701,-0.164173,-0.138727,-0.125519,-0.107793,-0.133442,0.42469,0.168208,-0.171243,-9.90779,0.0532837,-0.041014,-0.257105,0.168208,-0.171243,-0.114044,
7.88436,-88.9466,-41.8704,48.2695,-0.0440663,0.500226,0.492878,-0.710565,-0.102813,0.0611952,0.0366543,-6.54097,-5.56434,-4.98813,0.377884,0.09923,0.233259,23.08,99.054,0.025,-0.161129,0.0974471,0.0580195,-0.162458,-0.13867,-0.126026,-0.10565,-0.1303,0.422981,0.0209322,-0.116584,-9.93044,-0.00414713,-0.121712,-0.133729,0.0209322,-0.116584,-0.136691,
7.90958,-88.9466,-41.8704,48.2695,-0.0440663,0.500226,0.492878,-0.710565,-0.102813,0.0611952,0.0366543,-6.54097,-5.56434,-4.98813,0.377884,0.09923,0.233259,23.08,99.054,0.025,-0.161129,0.0974471,0.0580195,-0.162458,-0.13867,-0.126026,-0.10565,-0.1303,0.422981,0.0209322,-0.116584,-9.93044,-0.00414713,-0.121712,-0.133729,0.0209322,-0.116584,-0.136691,
7.93484,-88.6416,-41.7934,47.7751,-0.0427962,0.497642,0.493473,-0.712043,-0.107203,0.115181,0.0230146,-6.80649,-5.67859,-5.09516,0.379749,0.0981743,0.230065,23.08,99.054,0.025,-0.151961,0.133625,0.0503461,-0.168083,-0.141609,-0.12398,-0.101239,-0.134069,0.422556,-0.0429699,-0.0109067,-10.2242,-0.279475,-0.271546,-0.188078,-0.0429699,-0.0109067,-0.430408,
7.96007,-88.6416,-41.7934,47.7751,-0.0427962,0.497642,0.493473,-0.712043,-0.107203,0.115181,0.0230146,-6.80649,-5.67859,-5.09516,0.379749,0.0981743,0.230065,23.08,99.054,0.025,-0.151961,0.133625,0.0503461,-0.168083,-0.141609,-0.12398,-0.101239,-0.134069,0.422556,-0.0429699,-0.0109067,-10.2242,-0.279475,-0.271546,-0.188078,-0.0429699,-0.0109067,-0.430408,
7.98529,-88.475,-41.7025,47.4852,-0.0422716,0.495925,0.494089,-0.712845,-0.0230816,0.00301459,-0.000237768,-6.5851,-5.55745,-5.26367,0.380707,0.0991517,0.232304,23.1,99.058,0.024999,-0.0577379,0.0285843,0.0104396,-0.164115,-0.138904,-0.133271,-0.100699,-0.133909,0.425044,0.128869,-0.171723,-10.095,-0.0696831,-0.167676,-0.322296,0.128869,-0.171723,-0.301247,
8.01051,-88.475,-41.7025,47.4852,-0.0422716,0.495925,0.494089,-0.712845,-0.0230816,0.00301459,-0.000237768,-6.5851,-5.55745,-5.26367,0.380707,0.0991517,0.232304,23.1,99.058,0.024999,-0.0577379,0.0285843,0.0104396,-0.164115,-0.138904,-0.133271,-0.100699,-0.133909,0.425044,0.128869,-0.171723,-10.095,-0.0696831,-0.167676,-0.322296,0.128869,-0.171723,-0.301247,
8.03577,-88.4561,-41.6868,47.4497,-0.0422286,0.495694,0.494193,-0.712936,-0.0140737,0.0294856,-0.000953414,-6.58756,-5.54766,-5.1558,0.377884,0.100193,0.22885,23.08,99.065,0.025001,-0.0257273,0.022088,0.00652411,-0.164747,-0.138898,-0.129782,-0.0972921,-0.13286,0.422007,0.0498075,-0.115928,-10.0369,-0.0741501,-0.159634,-0.209882,0.0498075,-0.115928,-0.243129,
8.06101,-88.3765,-41.6337,47.4147,-0.0426786,0.495276,0.494079,-0.713279,0.0371338,0.00802694,0.00163452,-6.45434,-5.50067,-5.38571,0.377038,0.108153,0.233128,23.08,99.031,0.025,0.0279577,0.023672,0.0108209,-0.160401,-0.1372,-0.134298,-0.0949042,-0.12683,0.427915,0.251169,-0.280885,-10.0389,0.052291,-0.111224,-0.432415,0.251169,-0.280885,-0.245164,
8.08634,-88.3765,-41.6337,47.4147,-0.0426786,0.495276,0.494079,-0.713279,0.0371338,0.00802694,0.00163452,-6.45434,-5.50067,-5.38571,0.377038,0.108153,0.233128,23.08,99.031,0.025,0.0279577,0.023672,0.0108209,-0.160401,-0.1372,-0.134298,-0.0949042,-0.12683,0.427915,0.251169,-0.280885,-10.0389,0.052291,-0.111224,-0.432415,0.251169,-0.280885,-0.245164,
8.11158,-88.3373,-41.6077,47.5817,-0.0440462,0.495863,0.493226,-0.713378,0.0849257,0.0209221,0.00221222,-6.31621,-5.42758,-5.09947,0.37787,0.0972653,0.235479,23.09,99.047,0.025001,0.111252,0.0236193,0.00835676,-0.159184,-0.13515,-0.129786,-0.104431,-0.132468,0.423371,0.109915,-0.218985,-9.76205,0.187098,-0.0215474,-0.159907,0.109915,-0.218985,0.0316935,
8.13685,-88.3373,-41.6077,47.5817,-0.0440462,0.495863,0.493226,-0.713378,0.0849257,0.0209221,0.00221222,-6.31621,-5.42758,-5.09947,0.37787,0.0972653,0.235479,23.09,99.047,0.025001,0.111252,0.0236193,0.00835676,-0.159184,-0.13515,-0.129786,-0.104431,-0.132468,0.423371,0.109915,-0.218985,-9.76205,0.187098,-0.0215474,-0.159907,0.109915,-0.218985,0.0316935,
8.16212,-88.1691,-41.5342,47.7249,-0.0461145,0.496083,0.491877,-0.714025,0.091548,0.0702087,0.0203245,-6.07741,-5.44883,-4.94224,0.376029,0.102238,0.232036,23.08,99.043,0.025,0.126464,0.0916722,0.031342,-0.153285,-0.136503,-0.124686,-0.0987777,-0.131047,0.422801,0.00200582,-0.328524,-9.53638,0.416493,-0.0242929,-0.010609,0.00200582,-0.328524,0.257365,
8.18739,-88.0246,-41.4951,47.7676,-0.047244,0.496032,0.490961,-0.714617,0.0987765,0.077232,0.0379781,-6.09911,-5.45429,-4.91488,0.377911,0.10122,0.235441,23.1,99.058,0.025,0.135669,0.106431,0.0532946,-0.15219,-0.135643,-0.123648,-0.101798,-0.132143,0.425054,-0.0167131,-0.296914,-9.54023,0.389795,-0.0228,0.0156846,-0.0167131,-0.296914,0.253512,
8.21264,-88.0246,-41.4951,47.7676,-0.047244,0.496032,0.490961,-0.714617,0.0987765,0.077232,0.0379781,-6.09911,-5.45429,-4.91488,0.377911,0.10122,0.235441,23.1,99.058,0.025,0.135669,0.106431,0.0532946,-0.15219,-0.135643,-0.123648,-0.101798,-0.132143,0.425054,-0.0167131,-0.296914,-9.54023,0.389795,-0.0228,0.0156846,-0.0167131,-0.296914,0.253512,
8.23895,-87.5813,-41.3872,47.7285,-0.0495723,0.495191,0.488831,-0.716501,0.0772749,0.142342,0.0595893,-6.20777,-5.5593,-4.92713,0.376991,0.103222,0.235375,23.075,99.054,0.024999,0.114351,0.186206,0.0898195,-0.154632,-0.138619,-0.121333,-0.0992564,-0.131973,0.425334,-0.0827534,-0.257195,-9.67708,0.267305,-0.122151,0.0153647,-0.0827534,-0.257195,0.116667,
8.2642,-87.5813,-41.3872,47.7285,-0.0495723,0.495191,0.488831,-0.716501,0.0772749,0.142342,0.0595893,-6.20777,-5.5593,-4.92713,0.376991,0.103222,0.235375,23.075,99.054,0.024999,0.114351,0.186206,0.0898195,-0.154632,-0.138619,-0.121333,-0.0992564,-0.131973,0.425334,-0.0827534,-0.257195,-9.67708,0.267305,-0.122151,0.0153647,-0.0827534,-0.257195,0.116667,
8.28949,-87.0061,-41.2329,47.5733,-0.0520163,0.493574,0.486565,-0.718981,0.0805322,0.138314,0.0662849,-6.35108,-5.52526,-5.05293,0.376047,0.102283,0.239735,23.085,99.047,0.025001,0.110316,0.209141,0.0993202,-0.157831,-0.138247,-0.125474,-0.101202,-0.1319,0.426271,0.0104725,-0.158502,-9.81691,0.104183,-0.088661,-0.0839875,0.0104725,-0.158502,-0.023159,
8.31474,-86.4882,-41.1446,47.4888,-0.0542464,0.492571,0.484056,-0.721194,0.100661,0.0977653,0.0737215,-6.46594,-5.41209,-5.07134,0.375187,0.111175,0.234103,23.08,99.043,0.024999,0.133516,0.153681,0.111617,-0.160591,-0.136035,-0.127118,-0.0896328,-0.130265,0.427699,0.0816793,-0.00552011,-9.83925,-0.0220254,0.0245009,-0.0876784,0.0816793,-0.00552011,-0.0455074,
8.33999,-86.4882,-41.1446,47.4888,-0.0542464,0.492571,0.484056,-0.721194,0.100661,0.0977653,0.0737215,-6.46594,-5.41209,-5.07134,0.375187,0.111175,0.234103,23.08,99.043,0.024999,0.133516,0.153681,0.111617,-0.160591,-0.136035,-0.127118,-0.0896328,-0.130265,0.427699,0.0816793,-0.00552011,-9.83925,-0.0220254,0.0245009,-0.0876784,0.0816793,-0.00552011,-0.0455074,
8.36525,-86.2635,-41.1254,47.4865,-0.0553134,0.492365,0.482734,-0.722139,0.100528,0.0965903,0.0674139,-6.60855,-5.40909,-4.96754,0.371339,0.102409,0.240594,23.08,99.043,0.025,0.142731,0.137665,0.109734,-0.164145,-0.135337,-0.125284,-0.0998878,-0.129923,0.423567,-0.00324941,0.147914,-9.87855,-0.167121,0.0288936,0.0178107,-0.00324941,0.147914,-0.0848074,
8.3905,-86.2635,-41.1254,47.4865,-0.0553134,0.492365,0.482734,-0.722139,0.100528,0.0965903,0.0674139,-6.60855,-5.40909,-4.96754,0.371339,0.102409,0.240594,23.08,99.043,0.025,0.142731,0.137665,0.109734,-0.164145,-0.135337,-0.125284,-0.0998878,-0.129923,0.423567,-0.00324941,0.147914,-9.87855,-0.167121,0.0288936,0.0178107,-0.00324941,0.147914,-0.0848074,
8.41576,-85.8101,-41.058,47.4461,-0.0574101,0.49166,0.480337,-0.724051,0.0760752,0.115867,0.0627046,-6.48833,-5.31952,-4.76242,0.373201,0.100383,0.240709,23.08,99.054,0.025,0.117731,0.153941,0.0984494,-0.162537,-0.133051,-0.119417,-0.0999359,-0.133577,0.423635,-0.103917,0.196162,-9.64506,-0.0555831,0.120525,0.231886,-0.103917,0.196162,0.148688,
8.44104,-85.8101,-41.058,47.4461,-0.0574101,0.49166,0.480337,-0.724051,0.0760752,0.115867,0.0627046,-6.48833,-5.31952,-4.76242,0.373201,0.100383,0.240709,23.08,99.054,0.025,0.117731,0.153941,0.0984494,-0.162537,-0.133051,-0.119417,-0.0999359,-0.133577,0.423635,-0.103917,0.196162,-9.64506,-0.0555831,0.120525,0.231886,-0.103917,0.196162,0.148688,
8.46629,-85.3292,-40.9815,47.3039,-0.0590293,0.490465,0.478233,-0.726122,0.0528308,0.08784,0.073316,-6.37459,-5.25586,-4.87974,0.371377,0.104432,0.248273,23.08,99.054,0.025,0.0761291,0.145934,0.108716,-0.159199,-0.131536,-0.119555,-0.101544,-0.128309,0.428594,0.0134261,0.110374,-9.59474,0.048292,0.178084,0.133872,0.0134261,0.110374,0.19901,
8.49154,-84.9509,-41.0212,47.207,-0.0597959,0.490051,0.476077,-0.727753,0.0466031,0.0549517,0.0789165,-6.53411,-5.26961,-4.80562,0.371311,0.0984995,0.248327,23.09,99.047,0.025,0.0709298,0.0809497,0.121744,-0.162858,-0.131867,-0.120765,-0.104127,-0.131652,0.425518,-0.0751944,0.243349,-9.66915,-0.106103,0.152582,0.214144,-0.0751944,0.243349,0.124595,
8.51686,-84.9509,-41.0212,47.207,-0.0597959,0.490051,0.476077,-0.727753,0.0466031,0.0549517,0.0789165,-6.53411,-5.26961,-4.80562,0.371311,0.0984995,0.248327,23.09,99.047,0.025,0.0709298,0.0809497,0.121744,-0.162858,-0.131867,-0.120765,-0.104127,-0.131652,0.425518,-0.0751944,0.243349,-9.66915,-0.106103,0.152582,0.214144,-0.0751944,0.243349,0.124595,
8.54214,-84.7576,-41.0265,47.1335,-0.0601229,0.48967,0.47514,-0.728594,0.0296279,0.0845405,0.0661856,-6.7316,-5.31635,-4.72178,0.371305,0.0984866,0.246127,23.08,99.054,0.025,0.0497318,0.105463,0.11153,-0.166456,-0.133026,-0.118772,-0.1017,-0.132671,0.424501,-0.192884,0.396139,-9.78157,-0.302903,0.0989533,0.304527,-0.192884,0.396139,0.0121746,
8.56739,-84.7576,-41.0265,47.1335,-0.0601229,0.48967,0.47514,-0.728594,0.0296279,0.0845405,0.0661856,-6.7316,-5.31635,-4.72178,0.371305,0.0984866,0.246127,23.08,99.054,0.025,0.0497318,0.105463,0.11153,-0.166456,-0.133026,-0.118772,-0.1017,-0.132671,0.424501,-0.192884,0.396139,-9.78157,-0.302903,0.0989533,0.304527,-0.192884,0.396139,0.0121746,
8.59264,-84.3031,-40.8596,46.8534,-0.0612696,0.48748,0.474158,-0.730605,-0.0071889,0.144333,0.0206309,-6.70615,-5.40605,-4.91368,0.369452,0.101501,0.246003,23.08,99.043,0.024999,-0.00802805,0.207348,0.0479744,-0.168601,-0.134901,-0.121751,-0.0975256,-0.131245,0.424945,-0.140526,0.280684,-9.91178,-0.299007,-0.00173563,0.151839,-0.140526,0.280684,-0.118036,
8.6179,-84.0236,-40.7052,46.6586,-0.0621287,0.485788,0.473862,-0.731851,-0.00370404,0.0514039,0.00696035,-6.62884,-5.49147,-4.98553,0.367497,0.0936704,0.251481,23.08,99.054,0.024999,-0.00919538,0.0976766,0.0207221,-0.164787,-0.136971,-0.123809,-0.105301,-0.133284,0.422158,-0.16207,0.172999,-9.9447,-0.241674,-0.0918828,0.110155,-0.16207,0.172999,-0.150956,
8.64317,-84.0236,-40.7052,46.6586,-0.0621287,0.485788,0.473862,-0.731851,-0.00370404,0.0514039,0.00696035,-6.62884,-5.49147,-4.98553,0.367497,0.0936704,0.251481,23.08,99.054,0.024999,-0.00919538,0.0976766,0.0207221,-0.164787,-0.136971,-0.123809,-0.105301,-0.133284,0.422158,-0.16207,0.172999,-9.9447,-0.241674,-0.0918828,0.110155,-0.16207,0.172999,-0.150956,
8.66841,-83.9861,-40.6784,46.6304,-0.0622659,0.485523,0.473857,-0.732018,-0.0029022,0.013778,-0.00525044,-6.63825,-5.51109,-5.00563,0.366621,0.100597,0.248068,23.08,99.043,0.025001,-0.00771172,0.0423596,0.00774513,-0.166609,-0.137298,-0.125181,-0.0981349,-0.130336,0.423616,-0.16401,0.166221,-9.97198,-0.254568,-0.111836,0.0947737,-0.16401,0.166221,-0.178229,
8.6937,-83.9861,-40.6784,46.6304,-0.0622659,0.485523,0.473857,-0.732018,-0.0029022,0.013778,-0.00525044,-6.63825,-5.51109,-5.00563,0.366621,0.100597,0.248068,23.08,99.043,0.025001,-0.00771172,0.0423596,0.00774513,-0.166609,-0.137298,-0.125181,-0.0981349,-0.130336,0.423616,-0.16401,0.166221,-9.97198,-0.254568,-0.111836,0.0947737,-0.16401,0.166221,-0.178229,
8.71899,-84.0846,-40.6923,46.6441,-0.0618533,0.485699,0.474368,-0.731604,-0.0277683,-0.0281085,-0.0170483,-6.52862,-5.379,-5.05341,0.368475,0.0975888,0.249291,23.09,99.054,0.025,-0.0389178,-0.0446583,-0.0171224,-0.164507,-0.13513,-0.124138,-0.101129,-0.132664,0.423812,-0.032624,0.1355,-9.85262,-0.143129,0.0203374,0.0446264,-0.032624,0.1355,-0.0588779,
8.74431,-84.0846,-40.6923,46.6441,-0.0618533,0.485699,0.474368,-0.731604,-0.0277683,-0.0281085,-0.0170483,-6.52862,-5.379,-5.05341,0.368475,0.0975888,0.249291,23.09,99.054,0.025,-0.0389178,-0.0446583,-0.0171224,-0.164507,-0.13513,-0.124138,-0.101129,-0.132664,0.423812,-0.032624,0.1355,-9.85262,-0.143129,0.0203374,0.0446264,-0.032624,0.1355,-0.0588779,
8.76969,-84.2346,-40.7577,46.6977,-0.061172,0.486314,0.474818,-0.730961,0.000839936,-0.0772284,-0.00594066,-6.2833,-5.31584,-4.99527,0.369493,0.103524,0.253684,23.08,99.054,0.025001,-0.0124382,-0.0847635,-0.00374298,-0.158415,-0.132875,-0.12566,-0.101277,-0.127927,0.430088,-0.0102246,-0.00394368,-9.6276,0.110663,0.0829621,0.0927088,-0.0102246,-0.00394368,0.166144,
8.79491,-84.4949,-40.9605,46.9005,-0.0601543,0.488255,0.474747,-0.729798,0.0147704,-0.101095,0.00927545,-6.31764,-5.35135,-4.98578,0.368479,0.0985584,0.245983,23.09,99.054,0.025,0.0178115,-0.147568,0.0186372,-0.157813,-0.133565,-0.124839,-0.10015,-0.131121,0.422818,-0.0135891,-0.0251845,-9.66471,0.102531,0.0488792,0.0675735,-0.0135891,-0.0251845,0.129031,
8.82018,-84.4949,-40.9605,46.9005,-0.0601543,0.488255,0.474747,-0.729798,0.0147704,-0.101095,0.00927545,-6.31764,-5.35135,-4.98578,0.368479,0.0985584,0.245983,23.09,99.054,0.025,0.0178115,-0.147568,0.0186372,-0.157813,-0.133565,-0.124839,-0.10015,-0.131121,0.422818,-0.0135891,-0.0251845,-9.66471,0.102531,0.0488792,0.0675735,-0.0135891,-0.0251845,0.129031,
8.84547,-84.6187,-41.0693,47.0111,-0.0596835,0.489292,0.474595,-0.72924,0.0255136,-0.0994982,0.00911917,-6.43955,-5.29791,-5.07948,0.370373,0.0985358,0.250479,23.08,99.054,0.025,0.0261849,-0.140413,0.0238657,-0.159196,-0.13304,-0.127243,-0.1043,-0.130027,0.426427,0.0995619,0.0430069,-9.76345,-0.00533729,0.103135,-0.0448856,0.0995619,0.0430069,0.0302963,
8.87066,-84.6187,-41.0693,47.0111,-0.0596835,0.489292,0.474595,-0.72924,0.0255136,-0.0994982,0.00911917,-6.43955,-5.29791,-5.07948,0.370373,0.0985358,0.250479,23.08,99.054,0.025,0.0261849,-0.140413,0.0238657,-0.159196,-0.13304,-0.127243,-0.1043,-0.130027,0.426427,0.0995619,0.0430069,-9.76345,-0.00533729,0.103135,-0.0448856,0.0995619,0.0430069,0.0302963,
8.89587,-84.7894,-41.2211,47.1552,-0.0589667,0.490692,0.474412,-0.728477,-0.0118205,-0.0335562,0.014858,-6.28149,-5.36058,-4.80968,0.372229,0.0974544,0.242885,23.1,99.047,0.024999,-0.00458232,-0.068422,0.0240153,-0.156452,-0.133492,-0.12092,-0.100084,-0.133699,0.423265,-0.116477,-0.0311661,-9.5557,0.172252,0.0405904,0.199712,-0.116477,-0.0311661,0.238044,
8.92111,-84.793,-41.2553,47.1249,-0.0585543,0.490729,0.474417,-0.728481,-0.0258478,-0.00809325,0.0158608,-6.32219,-5.35381,-5.11314,0.374131,0.0984081,0.245173,23.09,99.058,0.025001,-0.0362415,-0.0230228,0.0315004,-0.157382,-0.134233,-0.125092,-0.101023,-0.126869,0.429494,0.110233,-0.127779,-9.56879,0.25157,0.12437,-0.0181748,0.110233,-0.127779,0.224959,
8.94641,-84.7431,-41.2391,47.0365,-0.0583031,0.490262,0.474547,-0.728731,-0.0475744,0.0427186,0.00554673,-6.20449,-5.26493,-5.03735,0.371384,0.105415,0.247164,23.08,99.043,0.024999,-0.0587491,0.0408854,0.0217535,-0.161016,-0.134299,-0.125032,-0.0978155,-0.126869,0.429494,0.110233,-0.127779,-9.56879,0.25157,0.12437,-0.0181748,0.110233,-0.127779,0.224959,
8.97163,-84.6108,-41.1901,46.8411,-0.0579169,0.489154,0.474752,-0.729373,-0.0482652,0.0352156,0.00489783,-6.52399,-5.47524,-4.9153,0.374095,0.0954286,0.243002,23.095,99.054,0.024999,-0.0580035,0.0524226,0.0213792,-0.1615,-0.136669,-0.12427,-0.0996362,-0.136168,0.423833,-0.165078,0.0497388,-9.83215,-0.0742228,-0.0990674,0.126001,-0.165078,0.0497388,-0.0384035,
8.99685,-84.6108,-41.1901,46.8411,-0.0579169,0.489154,0.474752,-0.729373,-0.0482652,0.0352156,0.00489783,-6.52399,-5.47524,-4.9153,0.374095,0.0954286,0.243002,23.095,99.054,0.024999,-0.0580035,0.0524226,0.0213792,-0.1615,-0.136669,-0.12427,-0.0996362,-0.136168,0.423833,-0.165078,0.0497388,-9.83215,-0.0742228,-0.0990674,0.126001,-0.165078,0.0497388,-0.0384035,
9.0222,-84.5296,-41.1294,46.6705,-0.0575374,0.488119,0.475223,-0.729789,-0.110941,0.0866201,-0.006064,-6.63584,-5.44174,-4.7197,0.372253,0.0984687,0.247278,23.08,99.054,0.025,-0.121534,0.0894679,0.00582184,-0.164842,-0.136999,-0.119557,-0.100196,-0.13182,0.426614,-0.324714,0.234456,-9.78581,-0.193891,-0.0756367,0.342282,-0.324714,0.234456,0.00793552,
9.04743,-84.5296,-41.1294,46.6705,-0.0575374,0.488119,0.475223,-0.729789,-0.110941,0.0866201,-0.006064,-6.63584,-5.44174,-4.7197,0.372253,0.0984687,0.247278,23.08,99.054,0.025,-0.121534,0.0894679,0.00582184,-0.164842,-0.136999,-0.119557,-0.100196,-0.13182,0.426614,-0.324714,0.234456,-9.78581,-0.193891,-0.0756367,0.342282,-0.324714,0.234456,0.00793552,
9.07265,-84.1919,-40.8642,46.0454,-0.0565585,0.484092,0.476854,-0.731483,-0.123225,0.132336,0.00172497,-6.12582,-5.22653,-5.44094,0.369408,0.0965691,0.248252,23.08,99.054,0.025001,-0.201863,0.194682,0.00433312,-0.156185,-0.13145,-0.132263,-0.0988533,-0.131829,0.424577,0.318057,-0.269013,-9.7094,0.281924,0.105434,-0.300075,0.318057,-0.269013,0.084342,
9.098,-83.9588,-40.783,45.6951,-0.0557851,0.482129,0.477186,-0.73262,-0.041845,-0.000463809,0.0350048,-6.19149,-5.308,-5.28883,0.368471,0.0966059,0.250404,23.08,99.054,0.025,-0.073294,0.0389152,0.0516326,-0.154083,-0.132789,-0.132494,-0.0985128,-0.130693,0.425465,0.0986056,-0.196792,-9.71765,0.205745,-0.00107092,-0.109127,0.0986056,-0.196792,0.0760965,
9.12339,-83.9588,-40.783,45.6951,-0.0557851,0.482129,0.477186,-0.73262,-0.041845,-0.000463809,0.0350048,-6.19149,-5.308,-5.28883,0.368471,0.0966059,0.250404,23.08,99.054,0.025,-0.073294,0.0389152,0.0516326,-0.154083,-0.132789,-0.132494,-0.0985128,-0.130693,0.425465,0.0986056,-0.196792,-9.71765,0.205745,-0.00107092,-0.109127,0.0986056,-0.196792,0.0760965,
