Timestamp,Yaw,Pitch,Roll,Qtn[0], Qtn[1], Qtn[2], Qtn[3],Rate X,Rate Y,Rate Z,Accel X,Accel Y,Accel Z,Mag X,Mag Y,Mag Z,Temp,Pres,dTime,dTheta X,dTheta Y,dTheta Z,dVel X,dVel Y,dVel Z,MagNed X,MagNed Y,MagNed Z,AccelNed X,AccelNed Y,AccelNed Z,LinearAccel X,LinearAccel Y,LinearAccel Z,LinearAccelNed X,LinearAccelNed Y,LinearAccelNed Z,Amplitude,Distance,Light 1,Light 2,Light 3,Light 4,Comments
0.491151,-119.265,-16.459,61.7647,-0.150821,0.500399,0.695709,-0.492791,-0.144638,0.123746,-0.134566,-1.73634,-9.22332,-4.18893,0.308401,0.296788,0.212404,23.11,99.051,0.025001,-0.167546,-0.00235853,-0.235886,-0.0412341,-0.218961,-0.102846,-0.135209,-0.14571,0.434508,-1.17303,-0.71662,-10.1854,1.03851,-0.948475,0.254562,-1.17303,-0.71662,-0.39164,
0.516528,-117.737,-15.6521,60.4235,-0.157007,0.487553,0.697402,-0.50127,-0.444627,0.855717,0.116325,-1.6382,-10.7644,-5.23642,0.300906,0.298046,0.225213,23.11,99.04,0.025,-0.582281,1.11789,0.104476,-0.0437844,-0.266026,-0.119961,-0.131499,-0.145319,0.437821,-1.43774,-1.10327,-11.9454,1.00412,-2.56267,-0.58163,-1.43774,-1.10327,-2.15163,
0.541772,-117.737,-15.6521,60.4235,-0.157007,0.487553,0.697402,-0.50127,-0.444627,0.855717,0.116325,-1.6382,-10.7644,-5.23642,0.300906,0.298046,0.225213,23.11,99.04,0.025,-0.582281,1.11789,0.104476,-0.0437844,-0.266026,-0.119961,-0.131499,-0.145319,0.437821,-1.43774,-1.10327,-11.9454,1.00412,-2.56267,-0.58163,-1.43774,-1.10327,-2.15163,
0.567025,-115.925,-15.2942,58.8873,-0.160209,0.47447,0.696947,-0.513299,-0.234832,0.211024,0.226736,-2.78575,-9.90976,-5.83127,0.297966,0.284354,0.239502,23.11,99.04,0.025,-0.441811,0.582687,0.332051,-0.0564568,-0.256909,-0.146175,-0.135579,-0.145967,0.432798,-0.26636,-0.254841,-11.825,-0.2024,-1.82178,-0.949847,-0.26636,-0.254841,-2.03129,
0.592333,-115.925,-15.2942,58.8873,-0.160209,0.47447,0.696947,-0.513299,-0.234832,0.211024,0.226736,-2.78575,-9.90976,-5.83127,0.297966,0.284354,0.239502,23.11,99.04,0.025,-0.441811,0.582687,0.332051,-0.0564568,-0.256909,-0.146175,-0.135579,-0.145967,0.432798,-0.26636,-0.254841,-11.825,-0.2024,-1.82178,-0.949847,-0.26636,-0.254841,-2.03129,
0.617619,-115.884,-15.5837,58.7076,-0.157636,0.474336,0.696604,-0.514684,-0.0425998,-0.258792,0.150187,-4.2666,-8.99372,-5.22768,0.300774,0.283275,0.236356,23.11,99.04,0.025,-0.171788,-0.11381,0.277147,-0.0922242,-0.234134,-0.1361,-0.133026,-0.148536,0.432221,0.390637,1.27282,-11.1645,-1.63555,-0.932351,-0.327746,0.390637,1.27282,-1.37079,
0.64284,-117.267,-16.4048,59.4063,-0.149464,0.483267,0.69728,-0.507853,0.19969,-0.697777,-0.0957831,-3.57144,-7.56473,-3.57064,0.305491,0.285094,0.229976,23.11,99.051,0.024999,0.23729,-0.924727,-0.0722671,-0.101112,-0.194379,-0.0971633,-0.134353,-0.14528,0.433976,-0.198224,1.31017,-8.99856,-0.805479,0.522505,1.21093,-0.198224,1.31017,0.795188,
0.668048,-117.267,-16.4048,59.4063,-0.149464,0.483267,0.69728,-0.507853,0.19969,-0.697777,-0.0957831,-3.57144,-7.56473,-3.57064,0.305491,0.285094,0.229976,23.11,99.051,0.024999,0.23729,-0.924727,-0.0722671,-0.101112,-0.194379,-0.0971633,-0.134353,-0.14528,0.433976,-0.198224,1.31017,-8.99856,-0.805479,0.522505,1.21093,-0.198224,1.31017,0.795188,
0.693265,-119.356,-17.0977,60.6928,-0.141498,0.496034,0.69874,-0.495673,0.240885,-0.686271,-0.141798,-1.74097,-7.97373,-3.17962,0.311184,0.291791,0.215896,23.11,99.051,0.024999,0.350069,-1.02572,-0.202597,-0.050256,-0.194925,-0.0809183,-0.133507,-0.144683,0.435697,-1.39598,-0.17604,-8.64532,1.13841,0.18906,1.40246,-1.39598,-0.17604,1.14842,
0.71847,-119.356,-17.0977,60.6928,-0.141498,0.496034,0.69874,-0.495673,0.240885,-0.686271,-0.141798,-1.74097,-7.97373,-3.17962,0.311184,0.291791,0.215896,23.11,99.051,0.024999,0.350069,-1.02572,-0.202597,-0.050256,-0.194925,-0.0809183,-0.133507,-0.144683,0.435697,-1.39598,-0.17604,-8.64532,1.13841,0.18906,1.40246,-1.39598,-0.17604,1.14842,
0.743694,-120.229,-17.3744,61.2532,-0.138237,0.50139,0.69918,-0.490556,0.185349,-0.541126,-0.0887745,-1.28177,-8.4956,-3.3705,0.314011,0.292683,0.21163,23.11,99.051,0.025,0.298349,-0.861271,-0.153447,-0.0351977,-0.207118,-0.0829189,-0.135693,-0.143917,0.435808,-1.72465,-0.71378,-9.0385,1.64279,-0.300675,1.12479,-1.72465,-0.71378,0.755246,
0.768918,-121.185,-17.8212,61.8202,-0.133416,0.507356,0.699335,-0.485511,0.0242996,-0.193992,0.0376341,-2.228,-9.30465,-4.30442,0.317735,0.289588,0.206349,23.12,99.04,0.025001,0.0777455,-0.380874,0.034249,-0.047366,-0.228218,-0.102556,-0.139348,-0.143059,0.433027,-1.03672,-0.554459,-10.4253,0.769363,-1.086,0.0986538,-1.03672,-0.554459,-0.631525,
0.794221,-121.185,-17.8212,61.8202,-0.133416,0.507356,0.699335,-0.485511,0.0242996,-0.193992,0.0376341,-2.228,-9.30465,-4.30442,0.317735,0.289588,0.206349,23.12,99.04,0.025001,0.0777455,-0.380874,0.034249,-0.047366,-0.228218,-0.102556,-0.139348,-0.143059,0.433027,-1.03672,-0.554459,-10.4253,0.769363,-1.086,0.0986538,-1.03672,-0.554459,-0.631525,
0.819443,-121.207,-18.0633,61.709,-0.131207,0.507434,0.699147,-0.486302,-0.0565696,-0.0393288,0.0808145,-3.08989,-9.01691,-4.91128,0.317865,0.301462,0.207337,23.13,99.044,0.025,-0.089306,-0.0151979,0.126299,-0.0734075,-0.23002,-0.122244,-0.132094,-0.141446,0.444354,-0.0837917,-0.236883,-10.7196,-0.0531781,-0.818045,-0.498301,-0.0837917,-0.236883,-0.925848,
0.8447,-121.207,-18.0633,61.709,-0.131207,0.507434,0.699147,-0.486302,-0.0565696,-0.0393288,0.0808145,-3.08989,-9.01691,-4.91128,0.317865,0.301462,0.207337,23.13,99.044,0.025,-0.089306,-0.0151979,0.126299,-0.0734075,-0.23002,-0.122244,-0.132094,-0.141446,0.444354,-0.0837917,-0.236883,-10.7196,-0.0531781,-0.818045,-0.498301,-0.0837917,-0.236883,-0.925848,
0.869947,-121.838,-18.4862,61.9564,-0.126572,0.510919,0.699367,-0.483557,0.0927888,-0.438735,-0.0235894,-3.5416,-8.39023,-5.08466,0.319634,0.291504,0.204225,23.11,99.04,0.025001,0.0809022,-0.517338,0.0111909,-0.0893322,-0.212218,-0.129577,-0.13752,-0.139576,0.436412,0.594762,-0.0716376,-10.4132,-0.436244,-0.192389,-0.71779,0.594762,-0.0716376,-0.619412,
0.895284,-121.838,-18.4862,61.9564,-0.126572,0.510919,0.699367,-0.483557,0.0927888,-0.438735,-0.0235894,-3.5416,-8.39023,-5.08466,0.319634,0.291504,0.204225,23.11,99.04,0.025001,0.0809022,-0.517338,0.0111909,-0.0893322,-0.212218,-0.129577,-0.13752,-0.139576,0.436412,0.594762,-0.0716376,-10.4132,-0.436244,-0.192389,-0.71779,0.594762,-0.0716376,-0.619412,
0.920489,-122.526,-18.7499,62.3594,-0.123394,0.5149,0.699607,-0.479793,0.14846,-0.505642,-0.0643234,-3.11596,-8.31882,-4.82849,0.321473,0.288457,0.198848,23.115,99.051,0.025,0.180701,-0.697046,-0.0621573,-0.0817298,-0.207504,-0.124398,-0.139261,-0.139647,0.432664,0.278226,-0.341385,-10.1011,0.0321081,-0.103215,-0.526062,0.278226,-0.341385,-0.307364,
0.945713,-123.97,-19.1368,63.3731,-0.118415,0.52371,0.699765,-0.471205,0.203223,-0.427474,-0.118535,-1.8722,-8.39283,-4.22045,0.326279,0.299165,0.190184,23.11,99.051,0.024999,0.289662,-0.664986,-0.150928,-0.0555004,-0.212423,-0.11016,-0.137438,-0.139678,0.440146,-0.723083,-1.09353,-9.48885,1.33843,-0.12159,-0.0736594,-0.723083,-1.09353,0.304894,
0.970948,-123.97,-19.1368,63.3731,-0.118415,0.52371,0.699765,-0.471205,0.203223,-0.427474,-0.118535,-1.8722,-8.39283,-4.22045,0.326279,0.299165,0.190184,23.11,99.051,0.024999,0.289662,-0.664986,-0.150928,-0.0555004,-0.212423,-0.11016,-0.137438,-0.139678,0.440146,-0.723083,-1.09353,-9.48885,1.33843,-0.12159,-0.0736594,-0.723083,-1.09353,0.304894,
0.996167,-124.781,-19.2301,64.2066,-0.117459,0.529885,0.698948,-0.465721,0.199692,-0.0340501,-0.030792,-0.912157,-7.05661,-4.18384,0.327181,0.297118,0.182548,23.11,99.04,0.025,0.283004,-0.223532,-0.0830059,-0.0211931,-0.182674,-0.105567,-0.139848,-0.139868,0.43535,-0.472418,-1.90114,-8.0184,2.31353,1.26936,-0.160087,-0.472418,-1.90114,1.77534,
1.02137,-124.781,-19.2301,64.2066,-0.117459,0.529885,0.698948,-0.465721,0.199692,-0.0340501,-0.030792,-0.912157,-7.05661,-4.18384,0.327181,0.297118,0.182548,23.11,99.04,0.025,0.283004,-0.223532,-0.0830059,-0.0211931,-0.182674,-0.105567,-0.139848,-0.139868,0.43535,-0.472418,-1.90114,-8.0184,2.31353,1.26936,-0.160087,-0.472418,-1.90114,1.77534,
1.04661,-123.341,-18.8258,64.0001,-0.125999,0.52599,0.695301,-0.473303,-0.000781424,0.829821,0.145815,-2.60325,-7.80436,-3.52777,0.322458,0.296248,0.182316,23.11,99.051,0.025,0.0514071,1.01454,0.185686,-0.0583149,-0.18882,-0.088507,-0.134752,-0.142963,0.431723,-0.373326,-0.111774,-8.94306,0.557102,0.527309,0.535834,-0.373326,-0.111774,0.850688,
1.07184,-121.99,-18.4566,63.5017,-0.132592,0.520393,0.693147,-0.480788,-0.066093,0.932394,0.174302,-2.72364,-8.35121,-3.86255,0.322477,0.29533,0.194429,23.11,99.051,0.025,-0.0696242,1.313,0.244439,-0.0681353,-0.203964,-0.0904876,-0.138996,-0.142801,0.435088,-0.402253,-0.135684,-9.58645,0.376929,-0.0371524,0.282372,-0.402253,-0.135684,0.207297,
1.09709,-121.99,-18.4566,63.5017,-0.132592,0.520393,0.693147,-0.480788,-0.066093,0.932394,0.174302,-2.72364,-8.35121,-3.86255,0.322477,0.29533,0.194429,23.11,99.051,0.025,-0.0696242,1.313,0.244439,-0.0681353,-0.203964,-0.0904876,-0.138996,-0.142801,0.435088,-0.402253,-0.135684,-9.58645,0.376929,-0.0371524,0.282372,-0.402253,-0.135684,0.207297,
1.12231,-119.753,-17.978,62.7355,-0.142635,0.511654,0.688642,-0.493597,0.0408858,0.538273,0.201958,-2.74949,-8.29196,-5.04624,0.316814,0.291594,0.207381,23.11,99.04,0.025001,0.00902085,0.898999,0.286115,-0.0673298,-0.209637,-0.120934,-0.139364,-0.141516,0.434691,0.411278,-0.665015,-10.0583,0.273364,-0.0113365,-0.778799,0.411278,-0.665015,-0.264558,
1.14751,-119.753,-17.978,62.7355,-0.142635,0.511654,0.688642,-0.493597,0.0408858,0.538273,0.201958,-2.74949,-8.29196,-5.04624,0.316814,0.291594,0.207381,23.11,99.04,0.025001,0.00902085,0.898999,0.286115,-0.0673298,-0.209637,-0.120934,-0.139364,-0.141516,0.434691,0.411278,-0.665015,-10.0583,0.273364,-0.0113365,-0.778799,0.411278,-0.665015,-0.264558,
1.17276,-118.364,-17.9224,62.674,-0.148929,0.509344,0.683065,-0.501807,0.188571,0.384172,0.176173,-3.27572,-8.33844,-4.89736,0.313044,0.292653,0.202777,23.11,99.051,0.025,0.235487,0.557231,0.275788,-0.0854821,-0.20782,-0.131245,-0.13019,-0.144725,0.43228,0.529304,-0.12064,-10.1956,-0.261897,-0.0598035,-0.619675,0.529304,-0.12064,-0.401805,
1.19799,-118.364,-17.9224,62.674,-0.148929,0.509344,0.683065,-0.501807,0.188571,0.384172,0.176173,-3.27572,-8.33844,-4.89736,0.313044,0.292653,0.202777,23.11,99.051,0.025,0.235487,0.557231,0.275788,-0.0854821,-0.20782,-0.131245,-0.13019,-0.144725,0.43228,0.529304,-0.12064,-10.1956,-0.261897,-0.0598035,-0.619675,0.529304,-0.12064,-0.401805,
1.22321,-116.93,-17.807,62.8074,-0.156651,0.507854,0.676527,-0.509761,0.201564,0.525388,0.199732,-2.23739,-8.40515,-4.53976,0.31028,0.296727,0.210299,23.11,99.04,0.025001,0.286278,0.689309,0.28064,-0.0589293,-0.210881,-0.110725,-0.129806,-0.141912,0.437674,-0.182403,-0.794026,-9.77743,0.757647,-0.111195,-0.278604,-0.182403,-0.794026,0.0163116,
1.24842,-115.94,-17.681,62.7915,-0.161793,0.505972,0.672591,-0.515205,0.197186,0.705478,0.242942,-1.97863,-8.06528,-4.88753,0.311183,0.291791,0.215896,23.11,99.04,0.025,0.283312,0.897735,0.328527,-0.0516915,-0.205476,-0.117834,-0.134789,-0.143148,0.435808,0.167413,-1.16243,-9.56412,0.995899,0.23333,-0.621071,0.167413,-1.16243,0.229623,
1.27372,-115.94,-17.681,62.7915,-0.161793,0.505972,0.672591,-0.515205,0.197186,0.705478,0.242942,-1.97863,-8.06528,-4.88753,0.311183,0.291791,0.215896,23.11,99.04,0.025,0.283312,0.897735,0.328527,-0.0516915,-0.205476,-0.117834,-0.134789,-0.143148,0.435808,0.167413,-1.16243,-9.56412,0.995899,0.23333,-0.621071,0.167413,-1.16243,0.229623,
1.29893,-112.964,-17.209,62.5211,-0.176701,0.498392,0.661779,-0.531442,0.252223,1.12687,0.353534,-2.56099,-7.97934,-5.42629,0.305543,0.291002,0.225518,23.11,99.04,0.024999,0.333168,1.52118,0.490821,-0.0627219,-0.197863,-0.138486,-0.132646,-0.144385,0.436412,0.890808,-0.799794,-9.9116,0.336576,0.320503,-1.10955,0.890808,-0.799794,-0.117856,
1.32415,-112.964,-17.209,62.5211,-0.176701,0.498392,0.661779,-0.531442,0.252223,1.12687,0.353534,-2.56099,-7.97934,-5.42629,0.305543,0.291002,0.225518,23.11,99.04,0.024999,0.333168,1.52118,0.490821,-0.0627219,-0.197863,-0.138486,-0.132646,-0.144385,0.436412,0.890808,-0.799794,-9.9116,0.336576,0.320503,-1.10955,0.890808,-0.799794,-0.117856,
1.34939,-109.304,-16.6681,62.3136,-0.194995,0.489308,0.647242,-0.551029,0.341551,1.14307,0.440639,-2.33675,-8.21169,-4.87342,0.298018,0.289299,0.239455,23.125,99.04,0.025,0.459335,1.67193,0.612071,-0.0612595,-0.204944,-0.122024,-0.132796,-0.14432,0.437475,0.30775,-0.633952,-9.8054,0.472367,0.0963158,-0.514133,0.30775,-0.633952,-0.0116529,
1.3746,-107.507,-16.5296,62.3221,-0.203566,0.485705,0.63897,-0.560686,0.379887,1.08824,0.496158,-2.18563,-8.10785,-5.01344,0.294214,0.284494,0.247011,23.11,99.051,0.024999,0.520071,1.59097,0.687145,-0.0563353,-0.203616,-0.12388,-0.136051,-0.143449,0.435231,0.458938,-0.784456,-9.7377,0.600799,0.206785,-0.65224,0.458938,-0.784456,0.0560446,
1.39986,-107.507,-16.5296,62.3221,-0.203566,0.485705,0.63897,-0.560686,0.379887,1.08824,0.496158,-2.18563,-8.10785,-5.01344,0.294214,0.284494,0.247011,23.11,99.051,0.024999,0.520071,1.59097,0.687145,-0.0563353,-0.203616,-0.12388,-0.136051,-0.143449,0.435231,0.458938,-0.784456,-9.7377,0.600799,0.206785,-0.65224,0.458938,-0.784456,0.0560446,
1.42506,-103.916,-16.5187,62.4916,-0.219608,0.479963,0.620421,-0.580073,0.436309,1.05939,0.594083,-2.466,-7.9425,-5.04187,0.291366,0.281624,0.251295,23.13,99.055,0.025001,0.612502,1.52213,0.837061,-0.0596171,-0.19841,-0.1291,-0.132248,-0.147852,0.433596,0.70745,-0.485249,-9.68757,0.318637,0.385481,-0.705054,0.70745,-0.485249,0.106177,
1.45028,-103.916,-16.5187,62.4916,-0.219608,0.479963,0.620421,-0.580073,0.436309,1.05939,0.594083,-2.466,-7.9425,-5.04187,0.291366,0.281624,0.251295,23.13,99.055,0.025001,0.612502,1.52213,0.837061,-0.0596171,-0.19841,-0.1291,-0.132248,-0.147852,0.433596,0.70745,-0.485249,-9.68757,0.318637,0.385481,-0.705054,0.70745,-0.485249,0.106177,
1.47552,-100.289,-16.7256,62.728,-0.234665,0.474887,0.60001,-0.599502,0.447016,1.02309,0.636402,-2.82478,-8.24608,-4.44561,0.284777,0.280848,0.258669,23.11,99.04,0.024999,0.638615,1.4819,0.91416,-0.0700794,-0.204972,-0.114441,-0.129388,-0.146016,0.434536,0.171916,-0.0213504,-9.78319,-0.00625046,0.0907255,-0.147825,0.171916,-0.0213504,0.01056,
1.50077,-100.289,-16.7256,62.728,-0.234665,0.474887,0.60001,-0.599502,0.447016,1.02309,0.636402,-2.82478,-8.24608,-4.44561,0.284777,0.280848,0.258669,23.11,99.04,0.024999,0.638615,1.4819,0.91416,-0.0700794,-0.204972,-0.114441,-0.129388,-0.146016,0.434536,0.171916,-0.0213504,-9.78319,-0.00625046,0.0907255,-0.147825,0.171916,-0.0213504,0.01056,
1.52602,-96.7092,-17.0262,62.9389,-0.248733,0.469714,0.578985,-0.618286,0.4314,1.02425,0.631312,-3.42577,-8.12179,-4.72318,0.279152,0.281061,0.270482,23.11,99.051,0.025001,0.616901,1.46165,0.922098,-0.0805585,-0.203947,-0.116803,-0.130642,-0.143317,0.438719,0.569414,0.465323,-9.97332,-0.558071,0.217488,-0.462882,0.569414,0.465323,-0.179574,
1.55125,-94.91,-17.1336,63.0219,-0.2559,0.466644,0.568454,-0.62739,0.4235,1.04176,0.597861,-3.74405,-8.00548,-4.49313,0.278294,0.288033,0.274769,23.125,99.051,0.024999,0.609327,1.48531,0.88561,-0.0906519,-0.201322,-0.115304,-0.12693,-0.143262,0.4464,0.446092,0.840525,-9.86855,-0.858799,0.335174,-0.247381,0.446092,0.840525,-0.0748034,
1.57648,-94.91,-17.1336,63.0219,-0.2559,0.466644,0.568454,-0.62739,0.4235,1.04176,0.597861,-3.74405,-8.00548,-4.49313,0.278294,0.288033,0.274769,23.125,99.051,0.024999,0.609327,1.48531,0.88561,-0.0906519,-0.201322,-0.115304,-0.12693,-0.143262,0.4464,0.446092,0.840525,-9.86855,-0.858799,0.335174,-0.247381,0.446092,0.840525,-0.0748034,
1.60171,-91.409,-17.2004,63.1237,-0.270225,0.459407,0.548352,-0.644386,0.370063,1.00173,0.506486,-3.97399,-7.95757,-4.09005,0.270738,0.28529,0.279913,23.11,99.04,0.024999,0.545235,1.46109,0.762528,-0.0981748,-0.199494,-0.104105,-0.124261,-0.142946,0.444035,0.0791965,1.1489,-9.72202,-1.07784,0.387605,0.139353,0.0791965,1.1489,0.071722,
1.62703,-91.409,-17.2004,63.1237,-0.270225,0.459407,0.548352,-0.644386,0.370063,1.00173,0.506486,-3.97399,-7.95757,-4.09005,0.270738,0.28529,0.279913,23.11,99.04,0.024999,0.545235,1.46109,0.762528,-0.0981748,-0.199494,-0.104105,-0.124261,-0.142946,0.444035,0.0791965,1.1489,-9.72202,-1.07784,0.387605,0.139353,0.0791965,1.1489,0.071722,
1.65225,-88.3812,-17.1794,63.19,-0.282766,0.452314,0.530959,-0.658436,0.314232,0.810871,0.405358,-4.04772,-7.84623,-4.3058,0.266859,0.273562,0.287534,23.11,99.04,0.025,0.459262,1.22676,0.616232,-0.100797,-0.197138,-0.106375,-0.129104,-0.148239,0.435985,0.269311,1.23323,-9.74135,-1.15499,0.504771,-0.0855714,0.269311,1.23323,0.0523949,
1.67747,-86.0854,-17.1935,63.3262,-0.292488,0.447242,0.517073,-0.668626,0.257992,0.56995,0.298212,-4.262,-7.93593,-3.97313,0.258429,0.277753,0.290365,23.11,99.04,0.024999,0.384065,0.892593,0.469861,-0.105136,-0.197261,-0.10134,-0.125247,-0.14387,0.438017,-0.111064,1.4439,-9.73819,-1.36698,0.424444,0.226916,-0.111064,1.4439,0.0555592,
1.70277,-86.0854,-17.1935,63.3262,-0.292488,0.447242,0.517073,-0.668626,0.257992,0.56995,0.298212,-4.262,-7.93593,-3.97313,0.258429,0.277753,0.290365,23.11,99.04,0.024999,0.384065,0.892593,0.469861,-0.105136,-0.197261,-0.10134,-0.125247,-0.14387,0.438017,-0.111064,1.4439,-9.73819,-1.36698,0.424444,0.226916,-0.111064,1.4439,0.0555592,
1.72808,-85.2539,-17.2047,63.4211,-0.296222,0.445588,0.511793,-0.67214,0.225922,0.440211,0.225551,-4.41104,-8.07011,-3.82756,0.258552,0.288646,0.292463,23.11,99.04,0.025001,0.338303,0.707382,0.374243,-0.109037,-0.200409,-0.0974471,-0.121037,-0.142426,0.448068,-0.317194,1.55143,-9.83497,-1.51419,0.296713,0.358372,-0.317194,1.55143,-0.0412226,
1.75339,-85.2539,-17.2047,63.4211,-0.296222,0.445588,0.511793,-0.67214,0.225922,0.440211,0.225551,-4.41104,-8.07011,-3.82756,0.258552,0.288646,0.292463,23.11,99.04,0.025001,0.338303,0.707382,0.374243,-0.109037,-0.200409,-0.0974471,-0.121037,-0.142426,0.448068,-0.317194,1.55143,-9.83497,-1.51419,0.296713,0.358372,-0.317194,1.55143,-0.0412226,
1.77859,-84.2928,-17.1785,63.6691,-0.301553,0.444052,0.505286,-0.675699,0.150589,0.17825,0.0602206,-4.23795,-8.31514,-3.69148,0.256573,0.279798,0.293549,23.11,99.051,0.025,0.235307,0.325571,0.141606,-0.107878,-0.207699,-0.0913487,-0.125111,-0.145771,0.439757,-0.513527,1.3197,-9.93597,-1.34537,0.0709028,0.458795,-0.513527,1.3197,-0.142221,
1.80373,-84.2928,-17.1785,63.6691,-0.301553,0.444052,0.505286,-0.675699,0.150589,0.17825,0.0602206,-4.23795,-8.31514,-3.69148,0.256573,0.279798,0.293549,23.11,99.051,0.025,0.235307,0.325571,0.141606,-0.107878,-0.207699,-0.0913487,-0.125111,-0.145771,0.439757,-0.513527,1.3197,-9.93597,-1.34537,0.0709028,0.458795,-0.513527,1.3197,-0.142221,
1.82887,-84.1315,-17.0918,63.9384,-0.304237,0.444379,0.503649,-0.675504,0.076525,-0.0184056,-0.0474134,-3.72684,-8.19625,-3.63059,0.254763,0.286769,0.293388,23.11,99.051,0.025,0.129908,0.0191748,-0.0335899,-0.0944669,-0.204846,-0.0924965,-0.123564,-0.1433,0.444313,-0.432729,0.8899,-9.65763,-0.848426,0.213135,0.482133,-0.432729,0.8899,0.136117,
1.85406,-84.5279,-16.9829,64.1021,-0.304251,0.445613,0.505795,-0.673077,-0.0387527,-0.168817,-0.125034,-3.51397,-8.39003,-3.23016,0.255669,0.284735,0.287952,23.11,99.04,0.025001,-0.0212581,-0.19867,-0.151457,-0.0896047,-0.208943,-0.0807299,-0.121377,-0.145206,0.439932,-0.826231,0.668388,-9.59401,-0.653342,0.0359735,0.860896,-0.826231,0.668388,0.199732,
1.8792,-84.5279,-16.9829,64.1021,-0.304251,0.445613,0.505795,-0.673077,-0.0387527,-0.168817,-0.125034,-3.51397,-8.39003,-3.23016,0.255669,0.284735,0.287952,23.11,99.04,0.025001,-0.0212581,-0.19867,-0.151457,-0.0896047,-0.208943,-0.0807299,-0.121377,-0.145206,0.439932,-0.826231,0.668388,-9.59401,-0.653342,0.0359735,0.860896,-0.826231,0.668388,0.199732,
1.90434,-84.9066,-16.9409,64.1095,-0.303048,0.446441,0.50816,-0.671286,-0.092281,-0.245755,-0.14043,-3.15328,-8.33754,-3.42676,0.254732,0.283808,0.294514,23.11,99.051,0.024999,-0.106174,-0.305099,-0.187487,-0.0826578,-0.20967,-0.0838937,-0.12877,-0.143809,0.441487,-0.590636,0.343764,-9.52541,-0.299519,0.0908758,0.664124,-0.590636,0.343764,0.268338,
1.9295,-84.9066,-16.9409,64.1095,-0.303048,0.446441,0.50816,-0.671286,-0.092281,-0.245755,-0.14043,-3.15328,-8.33754,-3.42676,0.254732,0.283808,0.294514,23.11,99.051,0.024999,-0.106174,-0.305099,-0.187487,-0.0826578,-0.20967,-0.0838937,-0.12877,-0.143809,0.441487,-0.590636,0.343764,-9.52541,-0.299519,0.0908758,0.664124,-0.590636,0.343764,0.268338,
1.95463,-85.9894,-17.0373,64.0406,-0.297886,0.449446,0.514356,-0.666858,-0.167741,-0.413676,-0.116766,-2.99634,-8.15586,-3.74466,0.256702,0.292636,0.290126,23.1075,99.047,0.024999,-0.221774,-0.544203,-0.163981,-0.0724731,-0.203866,-0.0904014,-0.12326,-0.140101,0.4482,-0.219275,0.221256,-9.45629,-0.126819,0.263299,0.354261,-0.219275,0.221256,0.337454,
1.97977,-87.5069,-17.2963,63.9346,-0.289858,0.454113,0.522509,-0.660869,-0.213785,-0.554185,-0.17913,-3.82632,-8.29505,-3.87685,0.262266,0.283603,0.2927,23.11,99.051,0.025,-0.294565,-0.758392,-0.218099,-0.0915461,-0.207564,-0.0986042,-0.13225,-0.142313,0.444009,-0.202626,0.923497,-9.8785,-0.914515,0.104775,0.231886,-0.202626,0.923497,-0.0847521,
2.00494,-87.5069,-17.2963,63.9346,-0.289858,0.454113,0.522509,-0.660869,-0.213785,-0.554185,-0.17913,-3.82632,-8.29505,-3.87685,0.262266,0.283603,0.2927,23.11,99.051,0.025,-0.294565,-0.758392,-0.218099,-0.0915461,-0.207564,-0.0986042,-0.13225,-0.142313,0.444009,-0.202626,0.923497,-9.8785,-0.914515,0.104775,0.231886,-0.202626,0.923497,-0.0847521,
2.03007,-89.4449,-17.3649,63.7992,-0.280979,0.458643,0.533876,-0.652437,-0.275802,-0.628223,-0.34127,-4.15119,-8.24641,-3.81396,0.265025,0.280481,0.278567,23.11,99.051,0.024999,-0.382309,-0.868015,-0.429959,-0.106844,-0.207692,-0.0966425,-0.124735,-0.142343,0.436677,-0.230963,1.24892,-9.90801,-1.22818,0.140551,0.313076,-0.230963,1.24892,-0.114268,
2.05521,-89.4449,-17.3649,63.7992,-0.280979,0.458643,0.533876,-0.652437,-0.275802,-0.628223,-0.34127,-4.15119,-8.24641,-3.81396,0.265025,0.280481,0.278567,23.11,99.051,0.024999,-0.382309,-0.868015,-0.429959,-0.106844,-0.207692,-0.0966425,-0.124735,-0.142343,0.436677,-0.230963,1.24892,-9.90801,-1.22818,0.140551,0.313076,-0.230963,1.24892,-0.114268,
2.08034,-90.5927,-17.2942,63.7232,-0.276344,0.460746,0.540973,-0.647067,-0.302662,-0.683962,-0.406603,-3.83415,-8.04524,-3.8951,0.267834,0.279401,0.275421,23.11,99.051,0.025001,-0.420982,-0.949013,-0.539587,-0.0980996,-0.202581,-0.0957248,-0.124761,-0.143718,0.435242,-0.0586998,1.00432,-9.674,-0.922686,0.339463,0.244649,-0.0586998,1.00432,0.119741,
2.10559,-90.5927,-17.2942,63.7232,-0.276344,0.460746,0.540973,-0.647067,-0.302662,-0.683962,-0.406603,-3.83415,-8.04524,-3.8951,0.267834,0.279401,0.275421,23.11,99.051,0.025001,-0.420982,-0.949013,-0.539587,-0.0980996,-0.202581,-0.0957248,-0.124761,-0.143718,0.435242,-0.0586998,1.00432,-9.674,-0.922686,0.339463,0.244649,-0.0586998,1.00432,0.119741,
2.13072,-93.0937,-16.9617,63.5313,-0.267086,0.464225,0.557051,-0.634708,-0.338017,-0.695492,-0.540507,-4.13437,-8.26738,-4.43978,0.270719,0.285251,0.273309,23.11,99.051,0.025,-0.47973,-0.994756,-0.720274,-0.103447,-0.204956,-0.108635,-0.125387,-0.142351,0.439737,0.354871,1.20078,-10.1777,-1.27721,0.118394,-0.264505,0.354871,1.20078,-0.383995,
2.15588,-95.8339,-16.3642,63.367,-0.258543,0.46701,0.575035,-0.619994,-0.309305,-0.776234,-0.625894,-3.21106,-8.22775,-4.76438,0.274562,0.293041,0.269026,23.13,99.055,0.025001,-0.465496,-1.07059,-0.874481,-0.0860449,-0.206616,-0.117638,-0.124375,-0.143763,0.444405,0.608993,0.346995,-10.0107,-0.451743,0.172188,-0.551945,0.608993,0.346995,-0.216992,
2.18112,-95.8339,-16.3642,63.367,-0.258543,0.46701,0.575035,-0.619994,-0.309305,-0.776234,-0.625894,-3.21106,-8.22775,-4.76438,0.274562,0.293041,0.269026,23.13,99.055,0.025001,-0.465496,-1.07059,-0.874481,-0.0860449,-0.206616,-0.117638,-0.124375,-0.143763,0.444405,0.608993,0.346995,-10.0107,-0.451743,0.172188,-0.551945,0.608993,0.346995,-0.216992,
2.20633,-97.3494,-16.0889,63.3776,-0.254039,0.469239,0.584183,-0.611563,-0.273024,-0.850236,-0.626572,-2.87379,-8.19638,-4.70049,0.274533,0.29008,0.270154,23.11,99.051,0.025,-0.415548,-1.17507,-0.88988,-0.0752707,-0.205174,-0.118653,-0.130866,-0.142798,0.441566,0.543709,0.0779713,-9.86065,-0.159669,0.216094,-0.483719,0.543709,0.0779713,-0.0669012,
2.23154,-97.3494,-16.0889,63.3776,-0.254039,0.469239,0.584183,-0.611563,-0.273024,-0.850236,-0.626572,-2.87379,-8.19638,-4.70049,0.274533,0.29008,0.270154,23.11,99.051,0.025,-0.415548,-1.17507,-0.88988,-0.0752707,-0.205174,-0.118653,-0.130866,-0.142798,0.441566,0.543709,0.0779713,-9.86065,-0.159669,0.216094,-0.483719,0.543709,0.0779713,-0.0669012,
2.25679,-100.537,-15.6637,63.5297,-0.244255,0.475131,0.601905,-0.593549,-0.243751,-0.903195,-0.592817,-2.4382,-8.20868,-4.30072,0.278314,0.292901,0.261518,23.11,99.051,0.025,-0.352666,-1.28954,-0.853828,-0.0632617,-0.205114,-0.109956,-0.132104,-0.143987,0.439839,0.159611,-0.186164,-9.57932,0.206016,0.232756,-0.0974296,0.159611,-0.186164,0.214425,
2.28217,-100.537,-15.6637,63.5297,-0.244255,0.475131,0.601905,-0.593549,-0.243751,-0.903195,-0.592817,-2.4382,-8.20868,-4.30072,0.278314,0.292901,0.261518,23.11,99.051,0.025,-0.352666,-1.28954,-0.853828,-0.0632617,-0.205114,-0.109956,-0.132104,-0.143987,0.439839,0.159611,-0.186164,-9.57932,0.206016,0.232756,-0.0974296,0.159611,-0.186164,0.214425,
2.30743,-103.593,-15.322,63.6092,-0.234003,0.480516,0.618415,-0.576116,-0.271155,-0.833461,-0.537589,-2.05588,-8.26853,-4.32993,0.28023,0.298711,0.248356,23.11,99.051,0.025,-0.380719,-1.21558,-0.778731,-0.0529236,-0.20618,-0.10649,-0.127231,-0.14454,0.438587,0.0841753,-0.517234,-9.543,0.532056,0.192711,-0.131415,0.0841753,-0.517234,0.250747,
2.33275,-106.269,-15.0264,63.496,-0.22401,0.484065,0.63322,-0.560833,-0.292073,-0.696963,-0.455875,-1.82521,-8.38826,-4.34449,0.281181,0.29967,0.247295,23.11,99.051,0.024999,-0.417084,-1.03899,-0.668747,-0.0466547,-0.209507,-0.10861,-0.132653,-0.141947,0.43849,-0.0534317,-0.699092,-9.59569,0.713955,0.0765091,-0.123384,-0.0534317,-0.699092,0.198051,
2.35799,-106.269,-15.0264,63.496,-0.22401,0.484065,0.63322,-0.560833,-0.292073,-0.696963,-0.455875,-1.82521,-8.38826,-4.34449,0.281181,0.29967,0.247295,23.11,99.051,0.024999,-0.417084,-1.03899,-0.668747,-0.0466547,-0.209507,-0.10861,-0.132653,-0.141947,0.43849,-0.0534317,-0.699092,-9.59569,0.713955,0.0765091,-0.123384,-0.0534317,-0.699092,0.198051,
2.38322,-107.423,-14.9034,63.3733,-0.219305,0.485135,0.639781,-0.554283,-0.292495,-0.632364,-0.401938,-1.68298,-8.41561,-4.40661,0.286784,0.296515,0.239909,23.105,99.051,0.025,-0.423434,-0.939707,-0.599756,-0.0434972,-0.21038,-0.109189,-0.132121,-0.148566,0.433814,-0.084548,-0.829163,-9.61138,0.835876,0.0449486,-0.164951,-0.084548,-0.829163,0.182369,
2.40844,-107.423,-14.9034,63.3733,-0.219305,0.485135,0.639781,-0.554283,-0.292495,-0.632364,-0.401938,-1.68298,-8.41561,-4.40661,0.286784,0.296515,0.239909,23.105,99.051,0.025,-0.423434,-0.939707,-0.599756,-0.0434972,-0.21038,-0.109189,-0.132121,-0.148566,0.433814,-0.084548,-0.829163,-9.61138,0.835876,0.0449486,-0.164951,-0.084548,-0.829163,0.182369,
2.43367,-109.368,-14.7642,63.0645,-0.21046,0.486509,0.650884,-0.543476,-0.265995,-0.504191,-0.287368,-1.74089,-8.37417,-4.56181,0.286807,0.297535,0.2454,23.11,99.051,0.025,-0.396469,-0.757445,-0.43577,-0.0431003,-0.209703,-0.112129,-0.139407,-0.143287,0.437083,0.0107439,-0.794288,-9.66109,0.754958,0.0688374,-0.271855,0.0107439,-0.794288,0.132657,
2.4589,-110.829,-14.7197,62.7711,-0.203152,0.487303,0.659162,-0.53551,-0.19943,-0.380586,-0.198256,-1.64762,-8.54339,-4.73668,0.287854,0.309327,0.236534,23.11,99.04,0.025,-0.310333,-0.573923,-0.300195,-0.0416703,-0.213374,-0.117947,-0.128663,-0.144728,0.443836,-0.0325384,-0.937041,-9.86211,0.840876,-0.120738,-0.402651,-0.0325384,-0.937041,-0.0683613,
2.48415,-110.829,-14.7197,62.7711,-0.203152,0.487303,0.659162,-0.53551,-0.19943,-0.380586,-0.198256,-1.64762,-8.54339,-4.73668,0.287854,0.309327,0.236534,23.11,99.04,0.025,-0.310333,-0.573923,-0.300195,-0.0416703,-0.213374,-0.117947,-0.128663,-0.144728,0.443836,-0.0325384,-0.937041,-9.86211,0.840876,-0.120738,-0.402651,-0.0325384,-0.937041,-0.0683613,
2.50937,-111.843,-14.7264,62.5889,-0.197949,0.488049,0.664627,-0.529996,-0.117551,-0.233309,-0.123753,-1.76038,-8.69899,-4.66284,0.289638,0.299402,0.238924,23.11,99.051,0.025,-0.192539,-0.382825,-0.186581,-0.0434376,-0.216781,-0.11898,-0.137614,-0.143716,0.437064,-0.175055,-0.798356,-9.99227,0.729223,-0.290428,-0.302185,-0.175055,-0.798356,-0.198528,
2.53458,-111.843,-14.7264,62.5889,-0.197949,0.488049,0.664627,-0.529996,-0.117551,-0.233309,-0.123753,-1.76038,-8.69899,-4.66284,0.289638,0.299402,0.238924,23.11,99.051,0.025,-0.192539,-0.382825,-0.186581,-0.0434376,-0.216781,-0.11898,-0.137614,-0.143716,0.437064,-0.175055,-0.798356,-9.99227,0.729223,-0.290428,-0.302185,-0.175055,-0.798356,-0.198528,
2.55981,-112.156,-14.7115,62.5173,-0.196381,0.488117,0.666427,-0.528253,-0.0988425,-0.149867,-0.0938104,-1.79032,-8.69234,-4.41952,0.290585,0.300354,0.236762,23.11,99.051,0.024999,-0.153908,-0.259981,-0.143521,-0.0446081,-0.217563,-0.112942,-0.136173,-0.144996,0.437197,-0.364706,-0.655501,-9.88592,0.696821,-0.28865,-0.0480644,-0.364706,-0.655501,-0.0921755,
2.58526,-112.156,-14.7115,62.5173,-0.196381,0.488117,0.666427,-0.528253,-0.0988425,-0.149867,-0.0938104,-1.79032,-8.69234,-4.41952,0.290585,0.300354,0.236762,23.11,99.051,0.024999,-0.153908,-0.259981,-0.143521,-0.0446081,-0.217563,-0.112942,-0.136173,-0.144996,0.437197,-0.364706,-0.655501,-9.88592,0.696821,-0.28865,-0.0480644,-0.364706,-0.655501,-0.0921755,
2.61046,-112.466,-14.6398,62.3498,-0.194752,0.48741,0.668804,-0.526501,-0.0666302,-0.0421994,-0.0537573,-2.03781,-8.52343,-4.5502,0.28774,0.298454,0.237736,23.11,99.051,0.025,-0.113249,-0.0785598,-0.0780905,-0.0500811,-0.214332,-0.113475,-0.136809,-0.142209,0.435256,-0.110338,-0.463251,-9.86302,0.437481,-0.129814,-0.152752,-0.110338,-0.463251,-0.069272,
2.63568,-112.566,-14.5597,62.2535,-0.194406,0.486725,0.669933,-0.525828,-0.0271383,0.00275283,-0.0315444,-2.08838,-8.49847,-4.41934,0.289717,0.306338,0.241059,23.11,99.029,0.024999,-0.0502763,-0.00555331,-0.0408703,-0.0528706,-0.212498,-0.110595,-0.135935,-0.142815,0.443862,-0.190272,-0.339673,-9.79614,0.373664,-0.109198,-0.00619404,-0.190272,-0.339673,-0.00239468,
2.66091,-112.566,-14.5597,62.2535,-0.194406,0.486725,0.669933,-0.525828,-0.0271383,0.00275283,-0.0315444,-2.08838,-8.49847,-4.41934,0.289717,0.306338,0.241059,23.11,99.029,0.024999,-0.0502763,-0.00555331,-0.0408703,-0.0528706,-0.212498,-0.110595,-0.135935,-0.142815,0.443862,-0.190272,-0.339673,-9.79614,0.373664,-0.109198,-0.00619404,-0.190272,-0.339673,-0.00239468,
2.68619,-112.53,-14.4869,62.2034,-0.194799,0.486107,0.670221,-0.525887,-0.00433386,0.0449349,-0.00025952,-1.91156,-8.35147,-4.56222,0.288733,0.303369,0.236638,23.11,99.051,0.025,-0.0142596,0.0493765,-0.00384026,-0.0479965,-0.209422,-0.113522,-0.133497,-0.144705,0.438903,-0.0724854,-0.543246,-9.69096,0.538434,0.0366993,-0.140278,-0.0724854,-0.543246,0.10279,
2.71139,-112.53,-14.4869,62.2034,-0.194799,0.486107,0.670221,-0.525887,-0.00433386,0.0449349,-0.00025952,-1.91156,-8.35147,-4.56222,0.288733,0.303369,0.236638,23.11,99.051,0.025,-0.0142596,0.0493765,-0.00384026,-0.0479965,-0.209422,-0.113522,-0.133497,-0.144705,0.438903,-0.0724854,-0.543246,-9.69096,0.538434,0.0366993,-0.140278,-0.0724854,-0.543246,0.10279,
2.73662,-112.432,-14.4542,62.1804,-0.195323,0.485685,0.669973,-0.526398,0.00307663,0.0864912,0.018868,-1.96565,-8.3463,-4.44478,0.286784,0.297483,0.236597,23.11,99.04,0.025001,-0.00115323,0.101529,0.0249191,-0.0486059,-0.20898,-0.112283,-0.135484,-0.143645,0.433278,-0.141111,-0.435973,-9.6473,0.478923,0.0413352,-0.0188111,-0.141111,-0.435973,0.146441,
2.76186,-112.043,-14.3896,62.1039,-0.197033,0.484337,0.668719,-0.528593,0.0111711,0.153789,0.0588131,-2.10519,-8.37606,-4.43809,0.286811,0.299474,0.238779,23.11,99.051,0.025001,0.01031,0.207914,0.0826971,-0.0517109,-0.208871,-0.112549,-0.134893,-0.144188,0.43586,-0.115602,-0.294727,-9.70498,0.328698,0.00808337,0.000361282,-0.115602,-0.294727,0.0887699,
2.78711,-112.043,-14.3896,62.1039,-0.197033,0.484337,0.668719,-0.528593,0.0111711,0.153789,0.0588131,-2.10519,-8.37606,-4.43809,0.286811,0.299474,0.238779,23.11,99.051,0.025001,0.01031,0.207914,0.0826971,-0.0517109,-0.208871,-0.112549,-0.134893,-0.144188,0.43586,-0.115602,-0.294727,-9.70498,0.328698,0.00808337,0.000361282,-0.115602,-0.294727,0.0887699,
2.81225,-111.505,-14.3533,62.01,-0.199107,0.482724,0.666741,-0.53178,0.0160709,0.168873,0.0849525,-2.30773,-8.40172,-4.44239,0.285871,0.29854,0.244241,23.11,99.04,0.025001,0.0187987,0.244683,0.124018,-0.0568694,-0.210167,-0.110737,-0.137451,-0.14273,0.437307,-0.0629992,-0.104496,-9.77929,0.120143,-0.0235045,0.0105059,-0.0629992,-0.104496,0.0144529,
2.83746,-111.505,-14.3533,62.01,-0.199107,0.482724,0.666741,-0.53178,0.0160709,0.168873,0.0849525,-2.30773,-8.40172,-4.44239,0.285871,0.29854,0.244241,23.11,99.04,0.025001,0.0187987,0.244683,0.124018,-0.0568694,-0.210167,-0.110737,-0.137451,-0.14273,0.437307,-0.0629992,-0.104496,-9.77929,0.120143,-0.0235045,0.0105059,-0.0629992,-0.104496,0.0144529,
2.86268,-111.229,-14.3518,61.9657,-0.200069,0.481982,0.665653,-0.533453,0.0166166,0.159578,0.0884948,-2.36431,-8.37713,-4.414,0.286781,0.296512,0.239906,23.11,99.04,0.024999,0.0210934,0.238099,0.133096,-0.0583719,-0.209811,-0.110607,-0.134475,-0.146237,0.433877,-0.0588479,-0.037815,-9.75935,0.0633195,-0.00230415,0.0454063,-0.0588479,-0.037815,0.0344,
2.88795,-111.229,-14.3518,61.9657,-0.200069,0.481982,0.665653,-0.533453,0.0166166,0.159578,0.0884948,-2.36431,-8.37713,-4.414,0.286781,0.296512,0.239906,23.11,99.04,0.024999,0.0210934,0.238099,0.133096,-0.0583719,-0.209811,-0.110607,-0.134475,-0.146237,0.433877,-0.0588479,-0.037815,-9.75935,0.0633195,-0.00230415,0.0454063,-0.0588479,-0.037815,0.0344,
2.91311,-110.711,-14.3507,61.8829,-0.201865,0.480589,0.663586,-0.536599,0.0129222,0.152443,0.0748603,-2.5558,-8.38465,-4.42694,0.284907,0.296585,0.244211,23.1025,99.047,0.024999,0.0186997,0.222497,0.12114,-0.0634214,-0.209793,-0.110418,-0.135328,-0.144109,0.435537,0.000622749,0.134486,-9.81907,-0.128361,-0.0162344,0.0445913,0.000622749,0.134486,-0.0253277,
2.93833,-110.206,-14.3114,61.7819,-0.203761,0.478961,0.661765,-0.539579,0.0034763,0.159584,0.0693653,-2.35941,-8.34235,-4.38563,0.282983,0.292685,0.245253,23.11,99.051,0.025001,0.00602649,0.230412,0.106266,-0.0592646,-0.208543,-0.110173,-0.13572,-0.143756,0.432212,-0.0901835,-0.0131344,-9.7153,0.0615176,0.0196399,0.101439,-0.0901835,-0.0131344,0.0784502,
2.96356,-110.206,-14.3114,61.7819,-0.203761,0.478961,0.661765,-0.539579,0.0034763,0.159584,0.0693653,-2.35941,-8.34235,-4.38563,0.282983,0.292685,0.245253,23.11,99.051,0.025001,0.00602649,0.230412,0.106266,-0.0592646,-0.208543,-0.110173,-0.13572,-0.143756,0.432212,-0.0901835,-0.0131344,-9.7153,0.0615176,0.0196399,0.101439,-0.0901835,-0.0131344,0.0784502,
2.98878,-109.67,-14.2629,61.6439,-0.205652,0.477024,0.659974,-0.542762,-0.00632466,0.174424,0.0747128,-2.31109,-8.26738,-4.40936,0.284889,0.293651,0.249741,23.11,99.051,0.024999,-0.00951624,0.24839,0.112268,-0.0579213,-0.207598,-0.110672,-0.137292,-0.145495,0.435598,-0.0666785,-0.0489603,-9.6502,0.1018,0.0855708,0.098804,-0.0666785,-0.0489603,0.143543,
3.01391,-109.67,-14.2629,61.6439,-0.205652,0.477024,0.659974,-0.542762,-0.00632466,0.174424,0.0747128,-2.31109,-8.26738,-4.40936,0.284889,0.293651,0.249741,23.11,99.051,0.024999,-0.00951624,0.24839,0.112268,-0.0579213,-0.207598,-0.110672,-0.137292,-0.145495,0.435598,-0.0666785,-0.0489603,-9.6502,0.1018,0.0855708,0.098804,-0.0666785,-0.0489603,0.143543,
3.03913,-109.387,-14.2412,61.5621,-0.206583,0.47596,0.659039,-0.544475,-0.0094747,0.175535,0.0803521,-2.38722,-8.2146,-4.38991,0.282073,0.296639,0.240767,23.11,99.04,0.025,-0.0147884,0.254271,0.120946,-0.0583629,-0.205765,-0.11051,-0.126549,-0.147379,0.433351,-0.0412142,0.0384672,-9.61491,0.0220825,0.132715,0.130606,-0.0412142,0.0384672,0.178831,
3.06436,-108.834,-14.1871,61.3811,-0.208356,0.47371,0.657334,-0.547813,-0.0202154,0.169085,0.0607286,-2.63001,-8.28396,-4.45242,0.281075,0.288821,0.252896,23.11,99.04,0.025,-0.029552,0.24793,0.104719,-0.0661598,-0.207001,-0.110279,-0.137506,-0.143995,0.432128,0.0228093,0.250924,-9.76225,-0.229666,0.0510213,0.0955252,0.0228093,0.250924,0.0314922,
3.08964,-108.834,-14.1871,61.3811,-0.208356,0.47371,0.657334,-0.547813,-0.0202154,0.169085,0.0607286,-2.63001,-8.28396,-4.45242,0.281075,0.288821,0.252896,23.11,99.04,0.025,-0.029552,0.24793,0.104719,-0.0661598,-0.207001,-0.110279,-0.137506,-0.143995,0.432128,0.0228093,0.250924,-9.76225,-0.229666,0.0510213,0.0955252,0.0228093,0.250924,0.0314922,
3.11486,-108.331,-14.0954,61.1873,-0.210083,0.471324,0.65603,-0.550766,-0.0216278,0.154553,0.0495697,-2.51197,-8.34059,-4.69513,0.282052,0.291771,0.254016,23.11,99.04,0.025,-0.0385851,0.231889,0.0821196,-0.0629631,-0.208135,-0.115399,-0.134872,-0.146501,0.435379,0.122549,0.0705255,-9.89443,-0.126834,-0.0176794,-0.117175,0.122549,0.0705255,-0.100685,
3.14008,-108.331,-14.0954,61.1873,-0.210083,0.471324,0.65603,-0.550766,-0.0216278,0.154553,0.0495697,-2.51197,-8.34059,-4.69513,0.282052,0.291771,0.254016,23.11,99.04,0.025,-0.0385851,0.231889,0.0821196,-0.0629631,-0.208135,-0.115399,-0.134872,-0.146501,0.435379,0.122549,0.0705255,-9.89443,-0.126834,-0.0176794,-0.117175,0.122549,0.0705255,-0.100685,
3.1656,-107.914,-14.0445,61.0644,-0.211531,0.469652,0.654691,-0.553228,0.00333724,0.121663,0.0553915,-2.45442,-8.38151,-4.6255,0.279193,0.288875,0.253899,23.105,99.051,0.025001,-0.00379321,0.181655,0.0863541,-0.0614166,-0.209167,-0.117103,-0.13371,-0.145617,0.43218,0.0110345,0.0572761,-9.8826,-0.0777248,-0.066583,-0.0286769,0.0110345,0.0572761,-0.088851,
3.19083,-107.914,-14.0445,61.0644,-0.211531,0.469652,0.654691,-0.553228,0.00333724,0.121663,0.0553915,-2.45442,-8.38151,-4.6255,0.279193,0.288875,0.253899,23.105,99.051,0.025001,-0.00379321,0.181655,0.0863541,-0.0614166,-0.209167,-0.117103,-0.13371,-0.145617,0.43218,0.0110345,0.0572761,-9.8826,-0.0777248,-0.066583,-0.0286769,0.0110345,0.0572761,-0.088851,
3.21612,-107.72,-14.0298,61.0215,-0.212207,0.468992,0.653983,-0.554366,0.00153666,0.11939,0.054396,-2.51218,-8.32046,-4.54287,0.279256,0.294809,0.253843,23.11,99.051,0.024999,0.00088829,0.173309,0.0865434,-0.0619022,-0.208762,-0.11396,-0.129831,-0.146001,0.437219,-0.0119622,0.149866,-9.80592,-0.137917,-0.00845272,0.0604875,-0.0119622,0.149866,-0.0121775,
3.24134,-107.328,-13.9712,60.9215,-0.213699,0.467459,0.652682,-0.556616,-0.00378679,0.123405,0.0387966,-2.53929,-8.258,-4.56802,0.278287,0.291878,0.256022,23.11,99.051,0.024999,-0.00641739,0.184113,0.0693385,-0.0634428,-0.206813,-0.11488,-0.131321,-0.145937,0.435478,0.0350611,0.183597,-9.7711,-0.174748,0.0480777,0.0510071,0.0350611,0.183597,0.0226412,
3.26657,-107.328,-13.9712,60.9215,-0.213699,0.467459,0.652682,-0.556616,-0.00378679,0.123405,0.0387966,-2.53929,-8.258,-4.56802,0.278287,0.291878,0.256022,23.11,99.051,0.024999,-0.00641739,0.184113,0.0693385,-0.0634428,-0.206813,-0.11488,-0.131321,-0.145937,0.435478,0.0350611,0.183597,-9.7711,-0.174748,0.0480777,0.0510071,0.0350611,0.183597,0.0226412,
3.29181,-107.025,-13.9271,60.8269,-0.214752,0.466178,0.651742,-0.558384,-0.00665976,0.0717675,0.034205,-2.50231,-8.20298,-4.59906,0.276378,0.288978,0.259254,23.11,99.04,0.024999,-0.0140073,0.122422,0.0595054,-0.0629047,-0.205612,-0.114018,-0.133613,-0.14431,0.434083,0.0647717,0.153001,-9.73007,-0.145075,0.0970514,0.0345538,0.0647717,0.153001,0.0636797,
3.31705,-107.025,-13.9271,60.8269,-0.214752,0.466178,0.651742,-0.558384,-0.00665976,0.0717675,0.034205,-2.50231,-8.20298,-4.59906,0.276378,0.288978,0.259254,23.11,99.04,0.024999,-0.0140073,0.122422,0.0595054,-0.0629047,-0.205612,-0.114018,-0.133613,-0.14431,0.434083,0.0647717,0.153001,-9.73007,-0.145075,0.0970514,0.0345538,0.0647717,0.153001,0.0636797,
3.34228,-106.861,-13.9742,60.7666,-0.214826,0.465717,0.651031,-0.559568,-0.0101224,0.0200791,0.0473624,-2.4218,-8.22279,-4.57483,0.276361,0.287976,0.257063,23.11,99.04,0.024999,-0.0151177,0.0423132,0.0727142,-0.0608191,-0.205208,-0.114413,-0.131478,-0.145292,0.432424,5.24521e-06,0.0813105,-9.71606,-0.0567542,0.0706661,0.0665686,5.24521e-06,0.0813105,0.0776834,
3.3675,-106.814,-14.0342,60.7378,-0.214495,0.465707,0.65072,-0.560065,-0.0130598,-0.000784147,0.0548729,-2.46245,-8.25656,-4.66324,0.276346,0.286011,0.259282,23.11,99.051,0.025001,-0.0203492,0.0125194,0.0827769,-0.0615756,-0.205883,-0.115757,-0.133858,-0.144304,0.432036,0.056802,0.0762985,-9.79648,-0.0874612,0.0323998,-0.0188736,0.056802,0.0762985,-0.002738,
3.39273,-106.814,-14.0342,60.7378,-0.214495,0.465707,0.65072,-0.560065,-0.0130598,-0.000784147,0.0548729,-2.46245,-8.25656,-4.66324,0.276346,0.286011,0.259282,23.11,99.051,0.025001,-0.0203492,0.0125194,0.0827769,-0.0615756,-0.205883,-0.115757,-0.133858,-0.144304,0.432036,0.056802,0.0762985,-9.79648,-0.0874612,0.0323998,-0.0188736,0.056802,0.0762985,-0.002738,
3.41795,-106.797,-14.2191,60.7108,-0.213266,0.466265,0.650122,-0.560764,-0.00363456,-0.0456831,0.0607594,-2.51531,-8.20579,-4.7197,0.27833,0.295834,0.255986,23.11,99.062,0.025001,-0.0100327,-0.0530096,0.0961262,-0.0614574,-0.20508,-0.118388,-0.125946,-0.145476,0.439873,0.130282,0.0788958,-9.79358,-0.109669,0.0742521,-0.0752144,0.130282,0.0788958,0.0001688,
3.44315,-106.797,-14.2191,60.7108,-0.213266,0.466265,0.650122,-0.560764,-0.00363456,-0.0456831,0.0607594,-2.51531,-8.20579,-4.7197,0.27833,0.295834,0.255986,23.11,99.062,0.025001,-0.0100327,-0.0530096,0.0961262,-0.0614574,-0.20508,-0.118388,-0.125946,-0.145476,0.439873,0.130282,0.0788958,-9.79358,-0.109669,0.0742521,-0.0752144,0.130282,0.0788958,0.0001688,
3.4684,-106.88,-14.4213,60.7208,-0.211697,0.467286,0.649808,-0.560872,-0.0053739,-0.059751,0.030822,-2.77107,-8.22208,-4.68871,0.278275,0.28992,0.259343,23.11,99.051,0.025001,-0.00914065,-0.0853056,0.063921,-0.0692361,-0.205612,-0.116812,-0.13158,-0.142888,0.437058,0.160434,0.292567,-9.85668,-0.33193,0.0513127,-0.0498441,0.160434,0.292567,-0.0629292,
3.49366,-106.88,-14.4213,60.7208,-0.211697,0.467286,0.649808,-0.560872,-0.0053739,-0.059751,0.030822,-2.77107,-8.22208,-4.68871,0.278275,0.28992,0.259343,23.11,99.051,0.025001,-0.00914065,-0.0853056,0.063921,-0.0692361,-0.205612,-0.116812,-0.13158,-0.142888,0.437058,0.160434,0.292567,-9.85668,-0.33193,0.0513127,-0.0498441,0.160434,0.292567,-0.0629292,
3.51895,-106.942,-14.4851,60.7257,-0.211064,0.467684,0.649877,-0.560699,-0.00871204,-0.0563479,0.0110671,-2.63353,-8.28949,-4.65143,0.281046,0.284897,0.258434,23.11,99.062,0.025,-0.0131914,-0.0809435,0.034097,-0.0672306,-0.206697,-0.116511,-0.134349,-0.145508,0.433266,0.0539262,0.163641,-9.86191,-0.183827,-0.0180772,-0.014606,0.0539262,0.163641,-0.0681629,
3.54427,-107.08,-14.566,60.7303,-0.210008,0.468288,0.650264,-0.560143,-0.0100541,-0.0549935,-0.00310327,-2.46512,-8.28348,-4.67292,0.280131,0.287875,0.256158,23.11,99.051,0.024999,-0.0184317,-0.0765518,0.00631673,-0.0621739,-0.207278,-0.116373,-0.130891,-0.144398,0.434718,0.0234327,-0.0134568,-9.82488,-0.00204119,-0.0147133,-0.0384549,0.0234327,-0.0134568,-0.0311327,
3.56949,-107.08,-14.566,60.7303,-0.210008,0.468288,0.650264,-0.560143,-0.0100541,-0.0549935,-0.00310327,-2.46512,-8.28348,-4.67292,0.280131,0.287875,0.256158,23.11,99.051,0.024999,-0.0184317,-0.0765518,0.00631673,-0.0621739,-0.207278,-0.116373,-0.130891,-0.144398,0.434718,0.0234327,-0.0134568,-9.82488,-0.00204119,-0.0147133,-0.0384549,0.0234327,-0.0134568,-0.0311327,
3.59473,-107.231,-14.6396,60.756,-0.209052,0.469001,0.650644,-0.559461,-3.27872e-05,-0.0603472,-0.00397384,-2.5403,-8.23639,-4.65078,0.282084,0.294738,0.253988,23.1025,99.047,0.025,-0.00538051,-0.0823975,0.0051867,-0.0622301,-0.205606,-0.115898,-0.126447,-0.145649,0.44017,0.0526795,0.0540707,-9.79364,-0.0650384,0.0316762,-0.0215735,0.0526795,0.0540707,0.000106812,
3.62,-107.231,-14.6396,60.756,-0.209052,0.469001,0.650644,-0.559461,-3.27872e-05,-0.0603472,-0.00397384,-2.5403,-8.23639,-4.65078,0.282084,0.294738,0.253988,23.1025,99.047,0.025,-0.00538051,-0.0823975,0.0051867,-0.0622301,-0.205606,-0.115898,-0.126447,-0.145649,0.44017,0.0526795,0.0540707,-9.79364,-0.0650384,0.0316762,-0.0215735,0.0526795,0.0540707,0.000106812,
3.64536,-107.395,-14.6907,60.7945,-0.208244,0.469722,0.651115,-0.55861,-0.00382857,-0.0516287,-0.0209339,-2.56143,-8.27283,-4.61446,0.282976,0.289775,0.255184,23.11,99.062,0.024999,-0.00649665,-0.0750843,-0.015711,-0.0650428,-0.206045,-0.115107,-0.130844,-0.145543,0.436876,0.0141175,0.0745885,-9.81265,-0.0777283,-0.00358182,0.00810972,0.0141175,0.0745885,-0.0189085,
3.67058,-107.395,-14.6907,60.7945,-0.208244,0.469722,0.651115,-0.55861,-0.00382857,-0.0516287,-0.0209339,-2.56143,-8.27283,-4.61446,0.282976,0.289775,0.255184,23.11,99.062,0.024999,-0.00649665,-0.0750843,-0.015711,-0.0650428,-0.206045,-0.115107,-0.130844,-0.145543,0.436876,0.0141175,0.0745885,-9.81265,-0.0777283,-0.00358182,0.00810972,0.0141175,0.0745885,-0.0189085,
3.69588,-107.478,-14.6989,60.8087,-0.207919,0.469987,0.651435,-0.558135,-0.00480957,-0.0521707,-0.0230918,-2.41823,-8.24485,-4.64914,0.281034,0.283902,0.257344,23.11,99.04,0.025,-0.00961991,-0.0719241,-0.0239384,-0.0614419,-0.206198,-0.116108,-0.135405,-0.143037,0.43245,0.0169191,-0.0709754,-9.76907,0.0668302,0.0252377,-0.0288039,0.0169191,-0.0709754,0.0246801,
3.72111,-107.631,-14.7131,60.8313,-0.207313,0.470447,0.652038,-0.557268,-0.00433556,-0.0445447,-0.0210231,-2.5265,-8.21275,-4.68065,0.284819,0.285772,0.255318,23.1,99.036,0.025001,-0.0102699,-0.0627243,-0.021229,-0.0626539,-0.205689,-0.116245,-0.1344,-0.146682,0.434045,0.09337,0.0153513,-9.78427,-0.039097,0.0586199,-0.063863,0.09337,0.0153513,0.00947285,
3.74639,-107.631,-14.7131,60.8313,-0.207313,0.470447,0.652038,-0.557268,-0.00433556,-0.0445447,-0.0210231,-2.5265,-8.21275,-4.68065,0.284819,0.285772,0.255318,23.1,99.036,0.025001,-0.0102699,-0.0627243,-0.021229,-0.0626539,-0.205689,-0.116245,-0.1344,-0.146682,0.434045,0.09337,0.0153513,-9.78427,-0.039097,0.0586199,-0.063863,0.09337,0.0153513,0.00947285,
3.77162,-107.77,-14.716,60.8587,-0.206856,0.470866,0.652592,-0.556434,-0.000111287,-0.0420605,-0.0231818,-2.51314,-8.24801,-4.58736,0.281081,0.289797,0.250686,23.105,99.04,0.025001,-0.00421187,-0.0580686,-0.0246033,-0.0624515,-0.205867,-0.115778,-0.128003,-0.144374,0.434286,0.000812054,0.0346215,-9.76669,-0.0252555,0.0254555,0.0254046,0.000812054,0.0346215,0.0270538,
3.79687,-107.77,-14.716,60.8587,-0.206856,0.470866,0.652592,-0.556434,-0.000111287,-0.0420605,-0.0231818,-2.51314,-8.24801,-4.58736,0.281081,0.289797,0.250686,23.105,99.04,0.025001,-0.00421187,-0.0580686,-0.0246033,-0.0624515,-0.205867,-0.115778,-0.128003,-0.144374,0.434286,0.000812054,0.0346215,-9.76669,-0.0252555,0.0254555,0.0254046,0.000812054,0.0346215,0.0270538,
3.8221,-107.892,-14.7055,60.8703,-0.206477,0.471111,0.653172,-0.555686,-0.0164276,-0.0246812,-0.0235019,-2.51261,-8.25007,-4.56367,0.283933,0.290747,0.256324,23.1,99.047,0.025001,-0.0197612,-0.0391032,-0.0243752,-0.0621419,-0.206185,-0.112706,-0.133223,-0.144548,0.438419,-0.0168021,0.0442663,-9.75714,-0.0264603,0.0247212,0.04765,-0.0168021,0.0442663,0.0366058,
3.84731,-107.931,-14.6864,60.8481,-0.206332,0.47098,0.653515,-0.555449,-0.0253699,-0.0115305,-0.0249265,-2.46025,-8.20267,-4.56638,0.280177,0.291839,0.257222,23.11,99.04,0.025,-0.034934,-0.0208511,-0.026615,-0.0619298,-0.205359,-0.114439,-0.132238,-0.140764,0.438784,-0.00747228,0.00213575,-9.70508,0.02274,0.0710652,0.048532,-0.00747228,0.00213575,0.0886698,
3.87254,-107.931,-14.6864,60.8481,-0.206332,0.47098,0.653515,-0.555449,-0.0253699,-0.0115305,-0.0249265,-2.46025,-8.20267,-4.56638,0.280177,0.291839,0.257222,23.11,99.04,0.025,-0.034934,-0.0208511,-0.026615,-0.0619298,-0.205359,-0.114439,-0.132238,-0.140764,0.438784,-0.00747228,0.00213575,-9.70508,0.02274,0.0710652,0.048532,-0.00747228,0.00213575,0.0886698,
3.89779,-107.975,-14.6249,60.756,-0.206093,0.470292,0.654317,-0.555176,-0.0500969,0.00875027,-0.0296076,-2.48598,-8.2067,-4.43572,0.283917,0.289746,0.254133,23.1075,99.051,0.025001,-0.0641683,0.00672537,-0.0298248,-0.0616541,-0.204843,-0.111484,-0.131686,-0.146026,0.436441,-0.116553,0.0906768,-9.65318,-0.0131608,0.0619226,0.193799,-0.116553,0.0906768,0.140566,
3.92303,-107.975,-14.6249,60.756,-0.206093,0.470292,0.654317,-0.555176,-0.0500969,0.00875027,-0.0296076,-2.48598,-8.2067,-4.43572,0.283917,0.289746,0.254133,23.1075,99.051,0.025001,-0.0641683,0.00672537,-0.0298248,-0.0616541,-0.204843,-0.111484,-0.131686,-0.146026,0.436441,-0.116553,0.0906768,-9.65318,-0.0131608,0.0619226,0.193799,-0.116553,0.0906768,0.140566,
3.94827,-107.961,-14.4987,60.5648,-0.206031,0.468676,0.655451,-0.555228,-0.0732905,0.036399,-0.0390769,-2.44191,-8.27118,-4.63847,0.280158,0.289867,0.25834,23.11,99.062,0.024999,-0.106946,0.0504524,-0.047627,-0.0618181,-0.206844,-0.115512,-0.132867,-0.142207,0.437464,-0.0269418,-0.00177419,-9.79234,0.0100288,-0.0133219,0.0212821,-0.0269418,-0.00177419,0.00140381,
3.97353,-107.961,-14.4987,60.5648,-0.206031,0.468676,0.655451,-0.555228,-0.0732905,0.036399,-0.0390769,-2.44191,-8.27118,-4.63847,0.280158,0.289867,0.25834,23.11,99.062,0.024999,-0.106946,0.0504524,-0.047627,-0.0618181,-0.206844,-0.115512,-0.132867,-0.142207,0.437464,-0.0269418,-0.00177419,-9.79234,0.0100288,-0.0133219,0.0212821,-0.0269418,-0.00177419,0.00140381,
3.99882,-107.934,-14.3429,60.341,-0.206048,0.466731,0.656755,-0.55532,-0.0827399,0.033578,-0.0489267,-2.51261,-8.17341,-4.44779,0.281083,0.28884,0.256196,23.11,99.062,0.025,-0.116662,0.0507377,-0.0566025,-0.0625165,-0.205082,-0.112,-0.130868,-0.145511,0.435629,-0.13081,0.178544,-9.63596,-0.0864606,0.07195,0.247457,-0.13081,0.178544,0.15779,
4.02409,-107.931,-14.2497,60.2107,-0.206026,0.465607,0.657576,-0.555299,-0.0973684,0.0381909,-0.0619004,-2.59982,-8.16464,-4.463,0.276331,0.284047,0.261503,23.11,99.04,0.025001,-0.134811,0.0528527,-0.0712168,-0.0640685,-0.204189,-0.110471,-0.13559,-0.14024,0.432866,-0.103371,0.275093,-9.65673,-0.189107,0.0734304,0.252948,-0.103371,0.275093,0.137019,
4.04935,-107.931,-14.2497,60.2107,-0.206026,0.465607,0.657576,-0.555299,-0.0973684,0.0381909,-0.0619004,-2.59982,-8.16464,-4.463,0.276331,0.284047,0.261503,23.11,99.04,0.025001,-0.134811,0.0528527,-0.0712168,-0.0640685,-0.204189,-0.110471,-0.13559,-0.14024,0.432866,-0.103371,0.275093,-9.65673,-0.189107,0.0734304,0.252948,-0.103371,0.275093,0.137019,
4.07464,-107.93,-13.988,59.8971,-0.206177,0.462764,0.659708,-0.555091,-0.116951,0.0489459,-0.0927112,-2.48005,-8.17901,-4.67454,0.277313,0.287972,0.260413,23.105,99.036,0.025,-0.167072,0.0712262,-0.118135,-0.0639874,-0.205159,-0.116707,-0.131513,-0.143795,0.435515,-0.015481,0.141038,-9.74053,-0.112721,0.0425703,0.0918944,-0.015481,0.141038,0.0532131,
4.09994,-107.93,-13.988,59.8971,-0.206177,0.462764,0.659708,-0.555091,-0.116951,0.0489459,-0.0927112,-2.48005,-8.17901,-4.67454,0.277313,0.287972,0.260413,23.105,99.036,0.025,-0.167072,0.0712262,-0.118135,-0.0639874,-0.205159,-0.116707,-0.131513,-0.143795,0.435515,-0.015481,0.141038,-9.74053,-0.112721,0.0425703,0.0918944,-0.015481,0.141038,0.0532131,
4.12521,-107.974,-13.6855,59.5693,-0.206346,0.459743,0.662229,-0.554537,-0.120848,0.0383249,-0.105901,-2.47618,-8.22654,-4.76149,0.273547,0.288074,0.261321,23.11,99.062,0.025001,-0.175715,0.0586645,-0.138254,-0.061512,-0.205076,-0.117592,-0.129755,-0.142618,0.434657,-0.00969887,0.168281,-9.82094,-0.15905,-0.0217121,0.0581701,-0.00969887,0.168281,-0.0271931,
4.15049,-108.001,-13.515,59.4027,-0.206522,0.458144,0.66358,-0.554179,-0.122273,0.0518584,-0.117601,-2.49871,-8.30345,-4.81365,0.274496,0.289996,0.255849,23.11,99.051,0.024999,-0.177704,0.0683454,-0.153617,-0.0627479,-0.207199,-0.119508,-0.124109,-0.146966,0.433477,-0.0213103,0.203109,-9.91566,-0.209908,-0.106768,0.0333286,-0.0213103,0.203109,-0.121919,
4.17574,-108.001,-13.515,59.4027,-0.206522,0.458144,0.66358,-0.554179,-0.122273,0.0518584,-0.117601,-2.49871,-8.30345,-4.81365,0.274496,0.289996,0.255849,23.11,99.051,0.024999,-0.177704,0.0683454,-0.153617,-0.0627479,-0.207199,-0.119508,-0.124109,-0.146966,0.433477,-0.0213103,0.203109,-9.91566,-0.209908,-0.106768,0.0333286,-0.0213103,0.203109,-0.121919,
4.201,-108.068,-13.1322,59.0911,-0.207195,0.454917,0.666382,-0.553223,-0.104338,0.0381225,-0.128189,-2.23604,-8.17743,-4.89979,0.27446,0.28509,0.262497,23.1,99.047,0.024999,-0.160888,0.0675087,-0.176496,-0.0578395,-0.205697,-0.122352,-0.131049,-0.147714,0.431875,0.00685644,0.0100349,-9.79174,-0.0109056,0.0057004,-0.000557086,0.00685644,0.0100349,0.00200653,
4.22625,-108.068,-13.1322,59.0911,-0.207195,0.454917,0.666382,-0.553223,-0.104338,0.0381225,-0.128189,-2.23604,-8.17743,-4.89979,0.27446,0.28509,0.262497,23.1,99.047,0.024999,-0.160888,0.0675087,-0.176496,-0.0578395,-0.205697,-0.122352,-0.131049,-0.147714,0.431875,0.00685644,0.0100349,-9.79174,-0.0109056,0.0057004,-0.000557086,0.00685644,0.0100349,0.00200653,
4.25151,-108.187,-12.7935,58.8647,-0.207798,0.452446,0.668936,-0.551939,-0.0802598,0.0222428,-0.123311,-2.32853,-8.21947,-4.91038,0.271607,0.281244,0.268991,23.1,99.047,0.025,-0.120882,0.0351012,-0.16648,-0.0576253,-0.204577,-0.122785,-0.137003,-0.145254,0.43053,0.0024097,0.157705,-9.85235,-0.159818,-0.044644,0.0278625,0.0024097,0.157705,-0.0586052,
4.27682,-108.187,-12.7935,58.8647,-0.207798,0.452446,0.668936,-0.551939,-0.0802598,0.0222428,-0.123311,-2.32853,-8.21947,-4.91038,0.271607,0.281244,0.268991,23.1,99.047,0.025,-0.120882,0.0351012,-0.16648,-0.0576253,-0.204577,-0.122785,-0.137003,-0.145254,0.43053,0.0024097,0.157705,-9.85235,-0.159818,-0.044644,0.0278625,0.0024097,0.157705,-0.0586052,
4.30217,-108.321,-12.4555,58.6698,-0.208493,0.450183,0.671424,-0.550505,-0.0817271,0.0195925,-0.126362,-2.18269,-8.24442,-4.81283,0.270699,0.285205,0.265606,23.11,99.04,0.024999,-0.118398,0.0358924,-0.172962,-0.0558469,-0.206176,-0.12001,-0.131805,-0.14807,0.431125,-0.144049,0.124271,-9.7909,-0.0703663,-0.0756551,0.15977,-0.144049,0.124271,0.002841,
4.33032,-108.398,-12.2924,58.5751,-0.208781,0.449107,0.672679,-0.549742,-0.0770762,0.0128032,-0.123922,-2.10693,-8.17604,-5.00382,0.269816,0.290187,0.267712,23.11,99.04,0.025,-0.116309,0.0246855,-0.171571,-0.054201,-0.20507,-0.123088,-0.130393,-0.147582,0.435771,0.012321,0.0146784,-9.81451,-0.0218296,-0.0103971,-0.0146242,0.012321,0.0146784,-0.0207663,
4.35563,-108.398,-12.2924,58.5751,-0.208781,0.449107,0.672679,-0.549742,-0.0770762,0.0128032,-0.123922,-2.10693,-8.17604,-5.00382,0.269816,0.290187,0.267712,23.11,99.04,0.025,-0.116309,0.0246855,-0.171571,-0.054201,-0.20507,-0.123088,-0.130393,-0.147582,0.435771,0.012321,0.0146784,-9.81451,-0.0218296,-0.0103971,-0.0146242,0.012321,0.0146784,-0.0207663,
4.3809,-108.554,-12.0083,58.4251,-0.209276,0.447354,0.674898,-0.548261,-0.0546854,-0.00353723,-0.100626,-1.98225,-8.17213,-5.04331,0.265079,0.287358,0.270799,23.11,99.051,0.025001,-0.0872732,0.00650052,-0.143279,-0.0499723,-0.204412,-0.125839,-0.13298,-0.144015,0.433301,-0.0020659,-0.061617,-9.80532,0.0553717,-0.0108732,-0.0273967,-0.0020659,-0.061617,-0.0115719,
4.40617,-108.554,-12.0083,58.4251,-0.209276,0.447354,0.674898,-0.548261,-0.0546854,-0.00353723,-0.100626,-1.98225,-8.17213,-5.04331,0.265079,0.287358,0.270799,23.11,99.051,0.025001,-0.0872732,0.00650052,-0.143279,-0.0499723,-0.204412,-0.125839,-0.13298,-0.144015,0.433301,-0.0020659,-0.061617,-9.80532,0.0553717,-0.0108732,-0.0273967,-0.0020659,-0.061617,-0.0115719,
4.43141,-108.739,-11.8232,58.345,-0.209359,0.446469,0.676671,-0.546765,-0.0334479,-0.0315367,-0.0824685,-2.04248,-8.22108,-5.06858,0.264131,0.287369,0.268549,23.11,99.04,0.025,-0.0564511,-0.0366693,-0.111692,-0.0513624,-0.205201,-0.125873,-0.131335,-0.145027,0.43149,0.00656247,0.0192093,-9.87158,-0.035816,-0.0612846,-0.0378349,0.00656247,0.0192093,-0.0778332,
4.45685,-108.944,-11.7042,58.3095,-0.209155,0.446151,0.678154,-0.545262,-0.027288,-0.0365322,-0.0631277,-1.86541,-8.18817,-4.97096,0.265106,0.289349,0.272981,23.1,99.047,0.025001,-0.0408472,-0.0530388,-0.0872853,-0.0476333,-0.2046,-0.124991,-0.134543,-0.144718,0.435291,-0.105641,-0.0869063,-9.75795,0.121333,-0.0279556,0.0670124,-0.105641,-0.0869063,0.0357924,
4.4821,-108.944,-11.7042,58.3095,-0.209155,0.446151,0.678154,-0.545262,-0.027288,-0.0365322,-0.0631277,-1.86541,-8.18817,-4.97096,0.265106,0.289349,0.272981,23.1,99.047,0.025001,-0.0408472,-0.0530388,-0.0872853,-0.0476333,-0.2046,-0.124991,-0.134543,-0.144718,0.435291,-0.105641,-0.0869063,-9.75795,0.121333,-0.0279556,0.0670124,-0.105641,-0.0869063,0.0357924,
4.50739,-109.024,-11.6574,58.2876,-0.209037,0.445979,0.678767,-0.544685,-0.0298822,-0.0261017,-0.0513295,-1.87248,-8.1879,-5.02623,0.266978,0.28927,0.267576,23.1075,99.051,0.025,-0.0431183,-0.0405914,-0.0713947,-0.0470621,-0.204986,-0.125136,-0.131202,-0.148681,0.432702,-0.0616946,-0.0923642,-9.78767,0.106441,-0.0282399,0.0157197,-0.0616946,-0.0923642,0.00607204,
4.53268,-109.024,-11.6574,58.2876,-0.209037,0.445979,0.678767,-0.544685,-0.0298822,-0.0261017,-0.0513295,-1.87248,-8.1879,-5.02623,0.266978,0.28927,0.267576,23.1075,99.051,0.025,-0.0431183,-0.0405914,-0.0713947,-0.0470621,-0.204986,-0.125136,-0.131202,-0.148681,0.432702,-0.0616946,-0.0923642,-9.78767,0.106441,-0.0282399,0.0157197,-0.0616946,-0.0923642,0.00607204,
4.55797,-109.145,-11.5842,58.2258,-0.208744,0.445536,0.679808,-0.543861,-0.0303872,-0.0221374,-0.0349994,-1.87244,-8.10103,-5.03342,0.266983,0.289282,0.269777,23.1,99.036,0.025001,-0.0470563,-0.0267326,-0.046477,-0.047097,-0.203245,-0.126387,-0.132982,-0.148219,0.433694,-0.0139816,-0.0807666,-9.71912,0.0942218,0.0553304,0.0186505,-0.0139816,-0.0807666,0.0746212,
4.58324,-109.285,-11.5742,58.1829,-0.20806,0.445496,0.68067,-0.543077,-0.0225599,-0.0497304,-0.0219016,-1.98038,-8.11706,-5.05653,0.265977,0.285305,0.262062,23.11,99.062,0.024999,-0.0370624,-0.0631474,-0.0274455,-0.0488222,-0.202535,-0.125275,-0.129052,-0.150003,0.426221,0.0234125,0.0144573,-9.76608,-0.0153926,0.0358105,0.00183093,0.0234125,0.0144573,0.027668,
4.60858,-109.285,-11.5742,58.1829,-0.20806,0.445496,0.68067,-0.543077,-0.0225599,-0.0497304,-0.0219016,-1.98038,-8.11706,-5.05653,0.265977,0.285305,0.262062,23.11,99.062,0.024999,-0.0370624,-0.0631474,-0.0274455,-0.0488222,-0.202535,-0.125275,-0.129052,-0.150003,0.426221,0.0234125,0.0144573,-9.76608,-0.0153926,0.0358105,0.00183093,0.0234125,0.0144573,0.027668,
4.63386,-109.46,-11.6166,58.1739,-0.207064,0.44593,0.681403,-0.542181,-0.0108485,-0.0616225,-0.0132783,-1.88535,-8.13883,-5.10387,0.265054,0.285373,0.269715,23.1025,99.062,0.025,-0.0220111,-0.0868345,-0.0138226,-0.0476625,-0.203275,-0.127553,-0.134867,-0.145544,0.430192,0.012805,-0.0975223,-9.78953,0.0867384,0.0120088,-0.0449955,0.012805,-0.0975223,0.0042181,
4.65913,-109.46,-11.6166,58.1739,-0.207064,0.44593,0.681403,-0.542181,-0.0108485,-0.0616225,-0.0132783,-1.88535,-8.13883,-5.10387,0.265054,0.285373,0.269715,23.1025,99.062,0.025,-0.0220111,-0.0868345,-0.0138226,-0.0476625,-0.203275,-0.127553,-0.134867,-0.145544,0.430192,0.012805,-0.0975223,-9.78953,0.0867384,0.0120088,-0.0449955,0.012805,-0.0975223,0.0042181,
4.6845,-109.549,-11.6498,58.1798,-0.206533,0.446259,0.681698,-0.541743,-0.00767667,-0.067305,-0.00602061,-1.78726,-8.09575,-4.97533,0.265048,0.28536,0.267515,23.105,99.036,0.025001,-0.0158982,-0.0903739,-0.00637675,-0.0455372,-0.202871,-0.125603,-0.133369,-0.14593,0.429141,-0.0949216,-0.144936,-9.66744,0.19038,0.0546342,0.0820979,-0.0949216,-0.144936,0.126305,
4.70977,-109.549,-11.6498,58.1798,-0.206533,0.446259,0.681698,-0.541743,-0.00767667,-0.067305,-0.00602061,-1.78726,-8.09575,-4.97533,0.265048,0.28536,0.267515,23.105,99.036,0.025001,-0.0158982,-0.0903739,-0.00637675,-0.0455372,-0.202871,-0.125603,-0.133369,-0.14593,0.429141,-0.0949216,-0.144936,-9.66744,0.19038,0.0546342,0.0820979,-0.0949216,-0.144936,0.126305,
4.73502,-109.711,-11.7527,58.1945,-0.205306,0.447051,0.682092,-0.54106,-0.0112679,-0.0507568,0.00906448,-1.81822,-8.04294,-4.89082,0.265081,0.288328,0.267488,23.11,99.04,0.025001,-0.014552,-0.0862708,0.0193942,-0.0444556,-0.200182,-0.122658,-0.13196,-0.14488,0.431911,-0.12395,-0.101321,-9.58589,0.176652,0.105707,0.162648,-0.12395,-0.101321,0.207857,
4.76027,-109.722,-11.7545,58.1335,-0.204964,0.446715,0.682376,-0.541108,-0.0256854,0.0342536,-0.020942,-2.45976,-8.41364,-5.21486,0.266999,0.290284,0.271968,23.11,99.051,0.025001,-0.0409698,0.0281225,-0.00530654,-0.0595989,-0.208426,-0.127947,-0.134557,-0.145025,0.436327,0.119894,0.373053,-10.1922,-0.464589,-0.270424,-0.152763,0.119894,0.373053,-0.398454,
4.7855,-109.722,-11.7545,58.1335,-0.204964,0.446715,0.682376,-0.541108,-0.0256854,0.0342536,-0.020942,-2.45976,-8.41364,-5.21486,0.266999,0.290284,0.271968,23.11,99.051,0.025001,-0.0409698,0.0281225,-0.00530654,-0.0595989,-0.208426,-0.127947,-0.134557,-0.145025,0.436327,0.119894,0.373053,-10.1922,-0.464589,-0.270424,-0.152763,0.119894,0.373053,-0.398454,
4.81075,-109.683,-11.6704,58.0995,-0.205497,0.446106,0.682582,-0.541149,-0.0129549,0.0638625,-0.0449561,-2.36702,-8.44472,-5.17599,0.268836,0.286267,0.269901,23.1075,99.051,0.024999,-0.0290829,0.0797936,-0.0438098,-0.061427,-0.210848,-0.130219,-0.135713,-0.148216,0.432067,0.0416229,0.319215,-10.1786,-0.385921,-0.30203,-0.107517,0.0416229,0.319215,-0.38482,
4.8361,-109.683,-11.6704,58.0995,-0.205497,0.446106,0.682582,-0.541149,-0.0129549,0.0638625,-0.0449561,-2.36702,-8.44472,-5.17599,0.268836,0.286267,0.269901,23.1075,99.051,0.024999,-0.0290829,0.0797936,-0.0438098,-0.061427,-0.210848,-0.130219,-0.135713,-0.148216,0.432067,0.0416229,0.319215,-10.1786,-0.385921,-0.30203,-0.107517,0.0416229,0.319215,-0.38482,
4.86135,-109.556,-11.4534,58.0988,-0.207388,0.444998,0.682647,-0.541257,0.0333909,0.0842987,-0.018255,-1.55804,-8.38555,-5.29476,0.266036,0.288331,0.271939,23.1025,99.062,0.025,0.0270538,0.119075,-0.0378455,-0.0422659,-0.209795,-0.131501,-0.135421,-0.14673,0.43358,-0.0880547,-0.438012,-10.029,0.386708,-0.236624,-0.222254,-0.0880547,-0.438012,-0.235209,
4.88661,-109.263,-11.3764,58.2633,-0.209801,0.445132,0.680857,-0.542471,0.119792,0.119233,0.0712238,-1.42015,-8.28866,-5.80596,0.265079,0.287358,0.270798,23.1,99.047,0.024999,0.140468,0.158571,0.0856853,-0.0356202,-0.208093,-0.14319,-0.135279,-0.147178,0.431523,0.347336,-0.757666,-10.1849,0.511697,-0.12298,-0.7555,0.347336,-0.757666,-0.3912,
4.91189,-109.263,-11.3764,58.2633,-0.209801,0.445132,0.680857,-0.542471,0.119792,0.119233,0.0712238,-1.42015,-8.28866,-5.80596,0.265079,0.287358,0.270798,23.1,99.047,0.024999,0.140468,0.158571,0.0856853,-0.0356202,-0.208093,-0.14319,-0.135279,-0.147178,0.431523,0.347336,-0.757666,-10.1849,0.511697,-0.12298,-0.7555,0.347336,-0.757666,-0.3912,
4.93713,-108.81,-11.5165,58.7261,-0.212862,0.447605,0.676473,-0.544723,0.259673,0.0740781,0.174723,-0.774926,-7.88505,-5.9034,0.266961,0.287304,0.269794,23.1025,99.051,0.025,0.325462,0.135382,0.22292,-0.0232703,-0.199387,-0.149067,-0.136613,-0.14848,0.43115,0.515105,-1.44108,-9.76128,1.1804,0.31709,-0.921526,0.515105,-1.44108,0.032465,
4.96239,-108.81,-11.5165,58.7261,-0.212862,0.447605,0.676473,-0.544723,0.259673,0.0740781,0.174723,-0.774926,-7.88505,-5.9034,0.266961,0.287304,0.269794,23.1025,99.051,0.025,0.325462,0.135382,0.22292,-0.0232703,-0.199387,-0.149067,-0.136613,-0.14848,0.43115,0.515105,-1.44108,-9.76128,1.1804,0.31709,-0.921526,0.515105,-1.44108,0.032465,
4.98765,-108.593,-11.7691,59.1249,-0.213994,0.450573,0.673092,-0.54602,0.34517,0.0248872,0.272283,-0.326232,-7.88459,-6.14235,0.263219,0.290359,0.268472,23.105,99.047,0.024999,0.441741,0.0528079,0.335233,-0.0112835,-0.19633,-0.151792,-0.134168,-0.143463,0.432536,0.618549,-2.00575,-9.77732,1.67138,0.344551,-1.22216,0.618549,-2.00575,0.0164232,
5.01293,-108.593,-11.7691,59.1249,-0.213994,0.450573,0.673092,-0.54602,0.34517,0.0248872,0.272283,-0.326232,-7.88459,-6.14235,0.263219,0.290359,0.268472,23.105,99.047,0.024999,0.441741,0.0528079,0.335233,-0.0112835,-0.19633,-0.151792,-0.134168,-0.143463,0.432536,0.618549,-2.00575,-9.77732,1.67138,0.344551,-1.22216,0.618549,-2.00575,0.0164232,
5.03815,-107.535,-12.3319,59.9451,-0.218527,0.455641,0.662991,-0.55234,0.304077,0.518333,0.381031,-1.94341,-8.45792,-4.2387,0.268866,0.290197,0.265461,23.11,99.051,0.025001,0.491018,0.518362,0.543822,-0.0431136,-0.207993,-0.118552,-0.134925,-0.146792,0.432689,-0.576493,0.0580516,-9.64075,0.148278,-0.176578,0.553131,-0.576493,0.0580516,0.152991,
5.06337,-105.045,-12.3482,60.0333,-0.228711,0.451354,0.650432,-0.566488,0.17105,0.770926,0.507849,-0.794666,-8.3971,-4.04049,0.264184,0.292314,0.268503,23.1,99.047,0.025,0.26613,1.10109,0.675886,-0.020455,-0.211701,-0.0977295,-0.129116,-0.146752,0.434888,-0.984525,-0.98935,-9.24771,1.29975,-0.108898,0.738276,-0.984525,-0.98935,0.546031,
5.08859,-105.045,-12.3482,60.0333,-0.228711,0.451354,0.650432,-0.566488,0.17105,0.770926,0.507849,-0.794666,-8.3971,-4.04049,0.264184,0.292314,0.268503,23.1,99.047,0.025,0.26613,1.10109,0.675886,-0.020455,-0.211701,-0.0977295,-0.129116,-0.146752,0.434888,-0.984525,-0.98935,-9.24771,1.29975,-0.108898,0.738276,-0.984525,-0.98935,0.546031,
5.11382,-102.618,-12.5696,59.9783,-0.236575,0.447062,0.637764,-0.580883,0.19186,0.478682,0.365468,-3.59098,-8.51537,-5.11355,0.264177,0.289404,0.278433,23.11,99.04,0.025,0.243668,0.857519,0.630402,-0.081317,-0.216189,-0.12669,-0.131746,-0.147786,0.438031,0.456503,1.27466,-10.4748,-1.45962,-0.238831,-0.330919,0.456503,1.27466,-0.681081,
5.13905,-102.618,-12.5696,59.9783,-0.236575,0.447062,0.637764,-0.580883,0.19186,0.478682,0.365468,-3.59098,-8.51537,-5.11355,0.264177,0.289404,0.278433,23.11,99.04,0.025,0.243668,0.857519,0.630402,-0.081317,-0.216189,-0.12669,-0.131746,-0.147786,0.438031,0.456503,1.27466,-10.4748,-1.45962,-0.238831,-0.330919,0.456503,1.27466,-0.681081,
5.16441,-102.074,-12.6849,60.1654,-0.238938,0.447472,0.633881,-0.583842,0.220415,0.158477,0.185975,-3.48531,-7.89988,-4.72052,0.264198,0.291383,0.278414,23.11,99.051,0.024999,0.303125,0.404131,0.374016,-0.0889995,-0.204244,-0.122071,-0.13036,-0.147831,0.43974,0.449682,1.31474,-9.74207,-1.3347,0.388495,0.0329213,0.449682,1.31474,0.051672,
5.18968,-102.378,-13.0131,60.8312,-0.239114,0.453201,0.631696,-0.581716,0.193314,-0.376203,-0.0456261,-3.30465,-6.96805,-4.48294,0.265113,0.290331,0.27187,23.1025,99.036,0.024999,0.287016,-0.406337,0.00176669,-0.0790928,-0.177127,-0.11399,-0.130401,-0.146843,0.435802,0.797338,1.21506,-8.80108,-1.09935,1.36411,0.167788,0.797338,1.21506,0.992663,
5.21491,-102.378,-13.0131,60.8312,-0.239114,0.453201,0.631696,-0.581716,0.193314,-0.376203,-0.0456261,-3.30465,-6.96805,-4.48294,0.265113,0.290331,0.27187,23.1025,99.036,0.024999,0.287016,-0.406337,0.00176669,-0.0790928,-0.177127,-0.11399,-0.130401,-0.146843,0.435802,0.797338,1.21506,-8.80108,-1.09935,1.36411,0.167788,0.797338,1.21506,0.992663,
5.24015,-103.561,-13.0962,61.5371,-0.237452,0.459913,0.634562,-0.573959,0.116943,-0.208745,-0.271397,-3.84405,-7.62118,-5.46167,0.267954,0.293182,0.264286,23.1,99.047,0.024999,0.193679,-0.446147,-0.31806,-0.0932104,-0.183451,-0.133744,-0.13084,-0.147476,0.434435,1.52035,1.31637,-9.932,-1.62493,0.764818,-0.915466,1.52035,1.31637,-0.138256,
5.26535,-103.561,-13.0962,61.5371,-0.237452,0.459913,0.634562,-0.573959,0.116943,-0.208745,-0.271397,-3.84405,-7.62118,-5.46167,0.267954,0.293182,0.264286,23.1,99.047,0.024999,0.193679,-0.446147,-0.31806,-0.0932104,-0.183451,-0.133744,-0.13084,-0.147476,0.434435,1.52035,1.31637,-9.932,-1.62493,0.764818,-0.915466,1.52035,1.31637,-0.138256,
5.29059,-104.519,-11.9316,62.3854,-0.244984,0.461768,0.639856,-0.563327,0.297801,-0.0368451,-0.718866,-1.60841,-8.99217,-3.48792,0.261474,0.304229,0.263846,23.1,99.047,0.024999,0.41402,-0.135318,-0.919433,-0.0752493,-0.232284,-0.120608,-0.133637,-0.145966,0.437463,-1.14531,-0.12473,-9.71002,0.416384,-0.501559,0.953609,-1.14531,-0.12473,0.0837297,
5.31587,-104.519,-11.9316,62.3854,-0.244984,0.461768,0.639856,-0.563327,0.297801,-0.0368451,-0.718866,-1.60841,-8.99217,-3.48792,0.261474,0.304229,0.263846,23.1,99.047,0.024999,0.41402,-0.135318,-0.919433,-0.0752493,-0.232284,-0.120608,-0.133637,-0.145966,0.437463,-1.14531,-0.12473,-9.71002,0.416384,-0.501559,0.953609,-1.14531,-0.12473,0.0837297,
5.34109,-104.681,-10.9406,62.6281,-0.251615,0.459332,0.642987,-0.558812,0.0482966,0.319553,-0.618951,-0.177553,-6.94113,-1.17238,0.255798,0.302394,0.263576,23.1,99.047,0.025001,0.207536,0.318829,-0.943455,-0.0111278,-0.189391,-0.0449368,-0.136839,-0.147312,0.431186,-2.3582,-0.517057,-6.61489,1.68121,1.59804,3.2486,-2.3582,-0.517057,3.17886,
5.36629,-105.282,-8.97231,62.4359,-0.26037,0.451296,0.653076,-0.549573,-0.207088,-0.0599279,-0.893935,-4.40307,-6.62642,-1.84842,0.246523,0.317443,0.258552,23.105,99.058,0.025,-0.237935,0.0371941,-1.12435,-0.0994165,-0.165611,-0.031436,-0.127097,-0.152865,0.434593,-0.507498,3.55929,-7.33396,-2.87566,1.94944,2.62809,-0.507498,3.55929,2.45978,
5.39153,-105.282,-8.97231,62.4359,-0.26037,0.451296,0.653076,-0.549573,-0.207088,-0.0599279,-0.893935,-4.40307,-6.62642,-1.84842,0.246523,0.317443,0.258552,23.105,99.058,0.025,-0.237935,0.0371941,-1.12435,-0.0994165,-0.165611,-0.031436,-0.127097,-0.152865,0.434593,-0.507498,3.55929,-7.33396,-2.87566,1.94944,2.62809,-0.507498,3.55929,2.45978,
5.41683,-107.325,-6.4743,61.9551,-0.265494,0.44264,0.672324,-0.530626,-0.295699,-0.280947,-1.1759,-1.62105,-7.60753,-4.09029,0.235295,0.322739,0.26893,23.1,99.047,0.025001,-0.399505,-0.400776,-1.66485,-0.0550374,-0.176656,-0.0967023,-0.137541,-0.153421,0.435193,0.22135,0.598005,-8.76506,-0.516736,0.981102,0.485006,0.22135,0.598005,1.02869,
5.44204,-107.325,-6.4743,61.9551,-0.265494,0.44264,0.672324,-0.530626,-0.295699,-0.280947,-1.1759,-1.62105,-7.60753,-4.09029,0.235295,0.322739,0.26893,23.1,99.047,0.025001,-0.399505,-0.400776,-1.66485,-0.0550374,-0.176656,-0.0967023,-0.137541,-0.153421,0.435193,0.22135,0.598005,-8.76506,-0.516736,0.981102,0.485006,0.22135,0.598005,1.02869,
5.46727,-109.846,-4.40304,61.141,-0.264997,0.434926,0.69288,-0.510424,-0.349594,-0.895466,-0.942984,-3.36579,-10.59,-5.37876,0.224957,0.324999,0.27168,23.1,99.047,0.025,-0.544803,-0.859806,-1.4069,-0.0685726,-0.254094,-0.125349,-0.141572,-0.153424,0.431809,0.453134,2.4353,-12.0943,-2.6139,-2.03783,-0.665705,0.453134,2.4353,-2.30052,
5.49252,-112.451,-4.30984,60.9754,-0.254918,0.439443,0.705191,-0.494582,-0.175014,-2.03655,-0.959729,-6.6975,-10.9024,-6.32898,0.228742,0.328795,0.260833,23.1025,99.047,0.025,-0.366484,-2.2257,-1.32991,-0.131971,-0.272207,-0.149537,-0.138578,-0.155871,0.430074,2.4147,5.20362,-13.0716,-5.9615,-2.36281,-1.59064,2.4147,5.20362,-3.27781,
5.51784,-112.451,-4.30984,60.9754,-0.254918,0.439443,0.705191,-0.494582,-0.175014,-2.03655,-0.959729,-6.6975,-10.9024,-6.32898,0.228742,0.328795,0.260833,23.1025,99.047,0.025,-0.366484,-2.2257,-1.32991,-0.131971,-0.272207,-0.149537,-0.138578,-0.155871,0.430074,2.4147,5.20362,-13.0716,-5.9615,-2.36281,-1.59064,2.4147,5.20362,-3.27781,
5.54323,-122.976,-6.14144,62.087,-0.205478,0.474402,0.738595,-0.432665,0.273178,-4.84213,-1.46682,-9.33663,-10.7865,-8.79297,0.249558,0.344857,0.223226,23.1,99.047,0.025,0.259909,-6.09136,-1.90094,-0.248816,-0.264327,-0.237874,-0.141269,-0.15193,0.433585,6.54015,5.08196,-14.5684,-8.28887,-2.18182,-4.23454,6.54015,5.08196,-4.77463,
5.56847,-122.976,-6.14144,62.087,-0.205478,0.474402,0.738595,-0.432665,0.273178,-4.84213,-1.46682,-9.33663,-10.7865,-8.79297,0.249558,0.344857,0.223226,23.1,99.047,0.025,0.259909,-6.09136,-1.90094,-0.248816,-0.264327,-0.237874,-0.141269,-0.15193,0.433585,6.54015,5.08196,-14.5684,-8.28887,-2.18182,-4.23454,6.54015,5.08196,-4.77463,
5.59371,-140.404,-9.84987,65.2373,-0.113866,0.529803,0.773893,-0.32777,0.131918,-6.53919,-1.41673,-5.16824,-7.81226,-6.53505,0.28251,0.356479,0.156576,23.1,99.058,0.024999,0.295834,-9.12916,-2.11848,-0.114933,-0.207184,-0.18019,-0.158619,-0.140462,0.431874,4.32443,0.122424,-10.5704,-3.49286,0.949861,-2.49331,4.32443,0.122424,-0.776659,
5.61895,-140.404,-9.84987,65.2373,-0.113866,0.529803,0.773893,-0.32777,0.131918,-6.53919,-1.41673,-5.16824,-7.81226,-6.53505,0.28251,0.356479,0.156576,23.1,99.058,0.024999,0.295834,-9.12916,-2.11848,-0.114933,-0.207184,-0.18019,-0.158619,-0.140462,0.431874,4.32443,0.122424,-10.5704,-3.49286,0.949861,-2.49331,4.32443,0.122424,-0.776659,
5.64411,-149.712,-11.8613,66.8687,-0.0599394,0.551527,0.786353,-0.2718,-0.279163,-6.20151,-1.20234,-4.64384,-6.27066,-5.47506,0.292868,0.36391,0.119623,23.1,99.047,0.025001,-0.128273,-9.16668,-1.868,-0.122238,-0.179973,-0.164492,-0.163136,-0.133443,0.433695,3.81606,-0.749187,-8.70282,-2.6308,2.54343,-1.70984,3.81606,-0.749187,1.09093,
5.66932,-166.468,-15.6364,68.6374,0.0457601,0.567901,0.803503,-0.17256,-1.03728,-5.56261,-0.794779,-5.05406,-6.15584,-7.47414,0.296701,0.384212,0.0558062,23.1,99.047,0.025001,-1.37314,-8.02441,-1.18803,-0.119838,-0.154229,-0.177065,-0.15811,-0.12855,0.444119,3.62017,-3.98169,-9.5048,-2.41434,2.62746,-4.03862,3.62017,-3.98169,0.288945,
5.69498,-166.468,-15.6364,68.6374,0.0457601,0.567901,0.803503,-0.17256,-1.03728,-5.56261,-0.794779,-5.05406,-6.15584,-7.47414,0.296701,0.384212,0.0558062,23.1,99.047,0.025001,-1.37314,-8.02441,-1.18803,-0.119838,-0.154229,-0.177065,-0.15811,-0.12855,0.444119,3.62017,-3.98169,-9.5048,-2.41434,2.62746,-4.03862,3.62017,-3.98169,0.288945,
5.72029,177.353,-19.0817,70.6,0.148402,0.566588,0.806846,-0.0771653,-0.860696,-5.34943,-0.777789,-3.85146,-6.1034,-10.2801,0.285351,0.392117,0.00454147,23.1,99.047,0.025001,-1.36014,-7.74529,-1.08088,-0.0938561,-0.152202,-0.258835,-0.153927,-0.11898,0.444243,0.286661,-7.69052,-9.92665,-0.64972,2.62671,-7.2057,0.286661,-7.69052,-0.132909,
5.7456,177.353,-19.0817,70.6,0.148402,0.566588,0.806846,-0.0771653,-0.860696,-5.34943,-0.777789,-3.85146,-6.1034,-10.2801,0.285351,0.392117,0.00454147,23.1,99.047,0.025001,-1.36014,-7.74529,-1.08088,-0.0938561,-0.152202,-0.258835,-0.153927,-0.11898,0.444243,0.286661,-7.69052,-9.92665,-0.64972,2.62671,-7.2057,0.286661,-7.69052,-0.132909,
5.77082,162.356,-21.2364,74.0385,0.236138,0.56221,0.792492,0.0107238,-0.422105,-4.39404,-0.789494,-0.50094,-8.09366,-8.95581,0.262709,0.400347,-0.0407001,23.11,99.062,0.025,-0.728143,-6.65686,-1.11497,-0.014734,-0.189082,-0.228916,-0.14958,-0.109013,0.4435,-5.02642,-5.10132,-9.73019,3.04653,0.683082,-6.4455,-5.02642,-5.10132,0.0635595,
5.79609,156.118,-21.5831,75.9446,0.269457,0.560783,0.781447,0.047507,-0.146951,-3.66942,-0.839366,0.876881,-9.84684,-8.71534,0.246711,0.407555,-0.0624895,23.1,99.036,0.025,-0.37527,-5.69652,-1.16032,0.0160977,-0.230824,-0.218147,-0.146509,-0.109673,0.444274,-7.12502,-3.47609,-10.5279,4.47952,-1.01243,-6.50361,-7.12502,-3.47609,-0.734183,
5.82142,156.118,-21.5831,75.9446,0.269457,0.560783,0.781447,0.047507,-0.146951,-3.66942,-0.839366,0.876881,-9.84684,-8.71534,0.246711,0.407555,-0.0624895,23.1,99.036,0.025,-0.37527,-5.69652,-1.16032,0.0160977,-0.230824,-0.218147,-0.146509,-0.109673,0.444274,-7.12502,-3.47609,-10.5279,4.47952,-1.01243,-6.50361,-7.12502,-3.47609,-0.734183,
5.84668,148.401,-20.8656,79.0622,0.304822,0.564299,0.761253,0.0956201,0.254691,-1.22584,-0.666172,4.39604,-10.5057,-6.1115,0.222253,0.41792,-0.0891419,23.1075,99.036,0.024999,0.292607,-2.52229,-1.05442,0.0939852,-0.264176,-0.17297,-0.144945,-0.106692,0.446775,-9.0793,0.880723,-9.15616,7.88435,-1.52045,-4.37507,-9.0793,0.880723,0.637587,
5.87192,148.401,-20.8656,79.0622,0.304822,0.564299,0.761253,0.0956201,0.254691,-1.22584,-0.666172,4.39604,-10.5057,-6.1115,0.222253,0.41792,-0.0891419,23.1075,99.036,0.024999,0.292607,-2.52229,-1.05442,0.0939852,-0.264176,-0.17297,-0.144945,-0.106692,0.446775,-9.0793,0.880723,-9.15616,7.88435,-1.52045,-4.37507,-9.0793,0.880723,0.637587,
5.89718,148.258,-19.7549,80.0453,0.299619,0.573481,0.755848,0.100209,0.326762,1.08698,-0.154867,5.83434,-10.3851,-4.87527,0.215691,0.422025,-0.0928172,23.1,99.047,0.024999,0.481165,0.844307,-0.364097,0.143983,-0.263616,-0.120133,-0.144242,-0.104053,0.44901,-9.43383,2.30065,-8.44795,9.1446,-1.30651,-3.28187,-9.43383,2.30065,1.3458,
5.92245,148.258,-19.7549,80.0453,0.299619,0.573481,0.755848,0.100209,0.326762,1.08698,-0.154867,5.83434,-10.3851,-4.87527,0.215691,0.422025,-0.0928172,23.1,99.047,0.024999,0.481165,0.844307,-0.364097,0.143983,-0.263616,-0.120133,-0.144242,-0.104053,0.44901,-9.43383,2.30065,-8.44795,9.1446,-1.30651,-3.28187,-9.43383,2.30065,1.3458,
5.9477,155.572,-18.9023,78.4826,0.256316,0.58297,0.768658,0.0601088,0.267989,3.43271,0.450049,5.8612,-7.9823,-4.35224,0.233486,0.406852,-0.0719575,23.1,99.047,0.025,0.400797,4.31294,0.44821,0.143813,-0.21004,-0.119716,-0.150526,-0.0982908,0.439207,-8.71656,1.0258,-6.32313,9.03394,1.09673,-2.50223,-8.71656,1.0258,3.47062,
5.97299,161.697,-18.6557,76.8469,0.222902,0.585249,0.77926,0.0235084,0.216903,4.32112,0.865343,5.27738,-7.39886,-5.16095,0.2495,0.402572,-0.0567974,23.105,99.051,0.025,0.334812,5.71986,1.00721,0.13485,-0.18893,-0.120853,-0.155441,-0.103326,0.438978,-8.34136,-0.760853,-6.25076,8.4102,1.63687,-3.04944,-8.34136,-0.760853,3.54298,
5.99825,161.697,-18.6557,76.8469,0.222902,0.585249,0.77926,0.0235084,0.216903,4.32112,0.865343,5.27738,-7.39886,-5.16095,0.2495,0.402572,-0.0567974,23.105,99.051,0.025,0.334812,5.71986,1.00721,0.13485,-0.18893,-0.120853,-0.155441,-0.103326,0.438978,-8.34136,-0.760853,-6.25076,8.4102,1.63687,-3.04944,-8.34136,-0.760853,3.54298,
6.02354,176.378,-18.7333,73.38,0.149071,0.5851,0.793866,-0.0721907,0.758943,4.79298,1.55304,-0.488536,-7.91183,-14.2992,0.285252,0.3861,-0.00970638,23.1,99.036,0.025,0.827018,6.84217,2.08644,0.0159688,-0.192758,-0.316407,-0.159471,-0.10988,0.439353,-4.00173,-11.2084,-11.2098,2.65685,0.975605,-11.6463,-4.00173,-11.2084,-1.41604,
6.04878,176.378,-18.7333,73.38,0.149071,0.5851,0.793866,-0.0721907,0.758943,4.79298,1.55304,-0.488536,-7.91183,-14.2992,0.285252,0.3861,-0.00970638,23.1,99.036,0.025,0.827018,6.84217,2.08644,0.0159688,-0.192758,-0.316407,-0.159471,-0.10988,0.439353,-4.00173,-11.2084,-11.2098,2.65685,0.975605,-11.6463,-4.00173,-11.2084,-1.41604,
6.07406,-168.611,-18.9398,72.3674,0.0743585,0.592634,0.782562,-0.175651,1.76623,4.68532,1.37261,-14.3626,-8.26738,-13.8962,0.311478,0.36288,0.0259647,23.1,99.036,0.025001,2.28447,6.70098,2.14731,-0.269623,-0.195112,-0.35834,-0.159453,-0.119007,0.435645,11.5919,-8.61973,-16.0956,-11.1838,0.560918,-11.0902,11.5919,-8.61973,-6.3018,
6.09932,-154.906,-16.7246,73.6143,-0.015108,0.603893,0.754298,-0.257135,1.94616,4.15504,0.17085,-9.3892,-5.53279,-2.15888,0.319004,0.35398,0.0594417,23.1,99.036,0.025001,2.79967,6.26206,0.398293,-0.355689,-0.178829,-0.0681347,-0.165635,-0.124862,0.433097,6.81771,2.62916,-8.36875,-6.57083,3.46572,0.487089,6.81771,2.62916,1.425,
6.12462,-154.906,-16.7246,73.6143,-0.015108,0.603893,0.754298,-0.257135,1.94616,4.15504,0.17085,-9.3892,-5.53279,-2.15888,0.319004,0.35398,0.0594417,23.1,99.036,0.025001,2.79967,6.26206,0.398293,-0.355689,-0.178829,-0.0681347,-0.165635,-0.124862,0.433097,6.81771,2.62916,-8.36875,-6.57083,3.46572,0.487089,6.81771,2.62916,1.425,
6.14988,-149.143,-15.4381,74.6628,-0.0569195,0.607686,0.737871,-0.288139,1.77411,3.83654,0.218447,-7.37982,-5.02476,-1.44606,0.316237,0.35612,0.0746825,23.11,99.04,0.024999,2.64145,5.68116,0.286003,-0.182543,-0.120178,-0.0341864,-0.167311,-0.125792,0.434268,4.94545,2.87848,-7.00414,-4.77276,4.0794,1.05091,4.94545,2.87848,2.78961,
6.17514,-149.143,-15.4381,74.6628,-0.0569195,0.607686,0.737871,-0.288139,1.77411,3.83654,0.218447,-7.37982,-5.02476,-1.44606,0.316237,0.35612,0.0746825,23.11,99.04,0.024999,2.64145,5.68116,0.286003,-0.182543,-0.120178,-0.0341864,-0.167311,-0.125792,0.434268,4.94545,2.87848,-7.00414,-4.77276,4.0794,1.05091,4.94545,2.87848,2.78961,
6.20041,-139.402,-13.4329,76.6369,-0.12756,0.609368,0.705645,-0.338326,1.312,2.79392,0.05215,-8.75719,-7.08732,2.7109,0.311567,0.355373,0.0953558,23.1,99.047,0.025,2.03062,4.43856,0.133633,-0.236222,-0.174205,0.044025,-0.17215,-0.133525,0.430107,2.5794,7.8415,-8.13174,-6.48205,2.18058,4.91251,2.5794,7.8415,1.66201,
6.22577,-139.402,-13.4329,76.6369,-0.12756,0.609368,0.705645,-0.338326,1.312,2.79392,0.05215,-8.75719,-7.08732,2.7109,0.311567,0.355373,0.0953558,23.1,99.047,0.025,2.03062,4.43856,0.133633,-0.236222,-0.174205,0.044025,-0.17215,-0.133525,0.430107,2.5794,7.8415,-8.13174,-6.48205,2.18058,4.91251,2.5794,7.8415,1.66201,
6.25101,-134.187,-12.2138,77.9227,-0.16716,0.60812,0.68615,-0.362555,0.449268,0.928654,-0.10824,-8.03043,-8.33257,3.91621,0.302283,0.365579,0.107984,23.1,99.047,0.024999,0.898299,1.9372,-0.0859787,-0.202375,-0.212282,0.108666,-0.170746,-0.133908,0.435429,0.393609,8.40061,-8.86178,-5.95846,1.02763,5.91899,0.393609,8.40061,0.931968,
6.27626,-133.83,-11.8902,78.1129,-0.171739,0.608049,0.684913,-0.362873,0.0119792,-0.13764,-0.209141,-7.71705,-7.8477,3.17169,0.29945,0.364674,0.110049,23.1,99.036,0.025001,0.261943,0.410978,-0.235272,-0.195611,-0.20107,0.088681,-0.172271,-0.132422,0.433076,0.821873,7.67213,-8.46534,-5.69919,1.5304,5.14576,0.821873,7.67213,1.32841,
6.30151,-133.83,-11.8902,78.1129,-0.171739,0.608049,0.684913,-0.362873,0.0119792,-0.13764,-0.209141,-7.71705,-7.8477,3.17169,0.29945,0.364674,0.110049,23.1,99.036,0.025001,0.261943,0.410978,-0.235272,-0.195611,-0.20107,0.088681,-0.172271,-0.132422,0.433076,0.821873,7.67213,-8.46534,-5.69919,1.5304,5.14576,0.821873,7.67213,1.32841,
6.32678,-136.952,-11.8702,77.621,-0.153762,0.609476,0.69722,-0.344647,-0.631712,-1.68215,-0.162201,-5.74654,-6.8865,-0.911036,0.30135,0.367555,0.103516,23.11,99.04,0.025001,-0.80023,-2.00947,-0.296587,-0.162032,-0.169871,-0.000444289,-0.173442,-0.131476,0.435036,2.66887,3.29548,-7.95572,-3.73201,2.47499,1.14363,2.66887,3.29548,1.83802,
6.35205,-136.952,-11.8702,77.621,-0.153762,0.609476,0.69722,-0.344647,-0.631712,-1.68215,-0.162201,-5.74654,-6.8865,-0.911036,0.30135,0.367555,0.103516,23.11,99.04,0.025001,-0.80023,-2.00947,-0.296587,-0.162032,-0.169871,-0.000444289,-0.173442,-0.131476,0.435036,2.66887,3.29548,-7.95572,-3.73201,2.47499,1.14363,2.66887,3.29548,1.83802,
6.37731,-144.178,-13.6583,77.6199,-0.103215,0.620629,0.713283,-0.308859,-0.424337,-3.09719,0.274181,-4.59362,-8.02497,-3.20568,0.308765,0.362252,0.0753414,23.1,99.058,0.025001,-0.707188,-4.13411,0.28294,-0.110381,-0.189962,-0.0772443,-0.170054,-0.127775,0.432428,2.81259,0.290477,-9.36925,-2.28102,1.27053,-1.16531,2.81259,0.290477,0.424497,
6.40254,-153.903,-16.7808,79.3815,-0.0332633,0.640846,0.72057,-0.26266,-0.172704,-3.62551,0.456679,-3.76152,-9.19623,-3.11178,0.318989,0.356838,0.0407094,23.11,99.051,0.025001,-0.311406,-5.09263,0.650965,-0.100448,-0.230723,-0.0812937,-0.170065,-0.111967,0.43507,1.34195,-0.861425,-10.2888,-0.933957,0.0198959,-1.38395,1.34195,-0.861425,-0.49508,
6.42784,-153.903,-16.7808,79.3815,-0.0332633,0.640846,0.72057,-0.26266,-0.172704,-3.62551,0.456679,-3.76152,-9.19623,-3.11178,0.318989,0.356838,0.0407094,23.11,99.051,0.025001,-0.311406,-5.09263,0.650965,-0.100448,-0.230723,-0.0812937,-0.170065,-0.111967,0.43507,1.34195,-0.861425,-10.2888,-0.933957,0.0198959,-1.38395,1.34195,-0.861425,-0.49508,
6.4531,-159.137,-18.3129,80.7443,0.00344153,0.650877,0.72105,-0.237559,-0.15488,-3.57084,0.439187,-3.2018,-9.20347,-2.845,0.325477,0.353524,0.0102672,23.1,99.036,0.025,-0.219056,-5.17742,0.655567,-0.0790843,-0.230794,-0.0757071,-0.169162,-0.114479,0.435085,0.511828,-1.22575,-10.064,-0.124544,-0.0267849,-1.34955,0.511828,-1.22575,-0.270298,
6.47836,-159.137,-18.3129,80.7443,0.00344153,0.650877,0.72105,-0.237559,-0.15488,-3.57084,0.439187,-3.2018,-9.20347,-2.845,0.325477,0.353524,0.0102672,23.1,99.036,0.025,-0.219056,-5.17742,0.655567,-0.0790843,-0.230794,-0.0757071,-0.169162,-0.114479,0.435085,0.511828,-1.22575,-10.064,-0.124544,-0.0267849,-1.34955,0.511828,-1.22575,-0.270298,
6.5036,-168.69,-20.524,83.4076,0.0678493,0.664558,0.719396,-0.190336,-0.17188,-2.85472,0.227452,-2.35675,-9.45434,-3.93755,0.32341,0.347362,-0.0370851,23.1,99.047,0.024999,-0.269499,-4.33547,0.39893,-0.0645046,-0.232078,-0.102283,-0.164787,-0.111197,0.432563,-0.665673,-3.01522,-10.0453,1.07693,-0.342892,-2.88455,-0.665673,-3.01522,-0.251572,
6.52886,-168.69,-20.524,83.4076,0.0678493,0.664558,0.719396,-0.190336,-0.17188,-2.85472,0.227452,-2.35675,-9.45434,-3.93755,0.32341,0.347362,-0.0370851,23.1,99.047,0.024999,-0.269499,-4.33547,0.39893,-0.0645046,-0.232078,-0.102283,-0.164787,-0.111197,0.432563,-0.665673,-3.01522,-10.0453,1.07693,-0.342892,-2.88455,-0.665673,-3.01522,-0.251572,
6.55412,-175.852,-21.6425,85.6522,0.11344,0.672234,0.715287,-0.153614,-0.113747,-1.8439,0.157846,0.00560084,-10.2687,-1.98464,0.316824,0.355268,-0.0672038,23.1,99.036,0.025,-0.150699,-3.01142,0.227043,-0.00404958,-0.253933,-0.0561314,-0.158487,-0.105685,0.441386,-3.74014,-1.47489,-9.6551,3.61767,-1.19157,-1.29453,-3.74014,-1.47489,0.138649,
6.5795,-179.029,-22.2934,86.4451,0.135176,0.673084,0.713805,-0.138446,-0.131324,-0.336854,0.132815,-1.04564,-10.7803,-2.74633,0.317599,0.343286,-0.0824479,23.1,99.047,0.025,-0.206353,-0.938976,0.220625,-0.018991,-0.266302,-0.0636977,-0.164045,-0.106369,0.432766,-3.14319,-2.12617,-10.5095,2.66962,-1.73605,-2.18446,-3.14319,-2.12617,-0.715795,
6.60471,-179.029,-22.2934,86.4451,0.135176,0.673084,0.713805,-0.138446,-0.131324,-0.336854,0.132815,-1.04564,-10.7803,-2.74633,0.317599,0.343286,-0.0824479,23.1,99.047,0.025,-0.206353,-0.938976,0.220625,-0.018991,-0.266302,-0.0636977,-0.164045,-0.106369,0.432766,-3.14319,-2.12617,-10.5095,2.66962,-1.73605,-2.18446,-3.14319,-2.12617,-0.715795,
6.63,-178.862,-22.4351,86.2441,0.135327,0.671872,0.7146,-0.140076,-0.0726153,0.383896,0.0885889,-1.11846,-11.0687,-2.71501,0.318552,0.342323,-0.0735882,23.1,99.047,0.025001,-0.140459,0.147155,0.160126,-0.0282312,-0.274724,-0.0680817,-0.163983,-0.0991297,0.43285,-3.20919,-2.04823,-10.8002,2.61918,-2.03571,-2.12202,-3.20919,-2.04823,-1.0065,
6.65521,-178.862,-22.4351,86.2441,0.135327,0.671872,0.7146,-0.140076,-0.0726153,0.383896,0.0885889,-1.11846,-11.0687,-2.71501,0.318552,0.342323,-0.0735882,23.1,99.047,0.025001,-0.140459,0.147155,0.160126,-0.0282312,-0.274724,-0.0680817,-0.163983,-0.0991297,0.43285,-3.20919,-2.04823,-10.8002,2.61918,-2.03571,-2.12202,-3.20919,-2.04823,-1.0065,
6.68036,-175.317,-22.4355,84.6728,0.116696,0.665938,0.719123,-0.160529,-0.0887604,1.66177,0.105775,-0.888389,-9.849,-2.06661,0.323324,0.344271,-0.057962,23.1,99.047,0.025,-0.123495,2.08946,0.147444,-0.0216403,-0.253926,-0.0505642,-0.162196,-0.103261,0.435259,-2.89132,-1.38392,-9.58061,2.84933,-0.83565,-1.22614,-2.89132,-1.38392,0.21314,
6.70559,-175.317,-22.4355,84.6728,0.116696,0.665938,0.719123,-0.160529,-0.0887604,1.66177,0.105775,-0.888389,-9.849,-2.06661,0.323324,0.344271,-0.057962,23.1,99.047,0.025,-0.123495,2.08946,0.147444,-0.0216403,-0.253926,-0.0505642,-0.162196,-0.103261,0.435259,-2.89132,-1.38392,-9.58061,2.84933,-0.83565,-1.22614,-2.89132,-1.38392,0.21314,
6.73084,-168.744,-22.0883,81.8724,0.0809516,0.654176,0.725565,-0.197626,-0.116461,2.43921,0.141841,-2.26485,-8.99901,-2.54348,0.332803,0.341265,-0.0233442,23.1,99.047,0.025,-0.167652,3.31982,0.204536,-0.0534183,-0.229248,-0.0573161,-0.165138,-0.105623,0.435129,-1.11674,-1.49236,-9.43964,1.41795,-0.015228,-1.26049,-1.11674,-1.49236,0.354104,
6.75607,-160.473,-21.163,78.5178,0.0346346,0.637167,0.730395,-0.243601,-0.0898235,2.87407,0.128894,-3.06522,-8.72096,-3.48511,0.338534,0.339374,0.0165732,23.1,99.058,0.025,-0.142143,4.02397,0.203428,-0.0756164,-0.219489,-0.0816975,-0.166105,-0.113357,0.435446,0.111363,-1.74233,-9.72361,0.470553,0.22948,-1.66702,0.111363,-1.74233,0.070138,
6.78131,-160.473,-21.163,78.5178,0.0346346,0.637167,0.730395,-0.243601,-0.0898235,2.87407,0.128894,-3.06522,-8.72096,-3.48511,0.338534,0.339374,0.0165732,23.1,99.058,0.025,-0.142143,4.02397,0.203428,-0.0756164,-0.219489,-0.0816975,-0.166105,-0.113357,0.435446,0.111363,-1.74233,-9.72361,0.470553,0.22948,-1.66702,0.111363,-1.74233,0.070138,
6.80653,-156.046,-20.4207,76.8354,0.00895118,0.627058,0.731449,-0.267771,-0.063773,2.96584,0.096168,-3.51506,-8.58083,-4.06993,0.33955,0.340486,0.0419181,23.1,99.036,0.024999,-0.112945,4.20374,0.167425,-0.0861982,-0.216003,-0.0920877,-0.167133,-0.114444,0.438122,0.866268,-1.81316,-9.92536,-0.0979269,0.356235,-1.97959,0.866268,-1.81316,-0.13161,
6.83176,-156.046,-20.4207,76.8354,0.00895118,0.627058,0.731449,-0.267771,-0.063773,2.96584,0.096168,-3.51506,-8.58083,-4.06993,0.33955,0.340486,0.0419181,23.1,99.036,0.024999,-0.112945,4.20374,0.167425,-0.0861982,-0.216003,-0.0920877,-0.167133,-0.114444,0.438122,0.866268,-1.81316,-9.92536,-0.0979269,0.356235,-1.97959,0.866268,-1.81316,-0.13161,
6.857,-147.146,-18.2803,73.8292,-0.0458757,0.604708,0.730177,-0.314747,0.0216752,3.03298,-0.0506841,-4.56627,-8.88181,-3.84356,0.334076,0.347801,0.0844736,23.1,99.047,0.025,0.00606633,4.35364,-0.0160232,-0.116383,-0.220659,-0.0966043,-0.163727,-0.124461,0.44431,1.77325,-0.304613,-10.5486,-1.49431,0.0497495,-1.25363,1.77325,-0.304613,-0.754864,
6.88224,-139.008,-15.4922,71.7064,-0.10088,0.581878,0.724643,-0.355152,0.160885,2.69036,-0.164247,-4.18552,-8.90014,-4.1971,0.319036,0.343451,0.120057,23.1075,99.051,0.024999,0.171471,4.0005,-0.203387,-0.110006,-0.222809,-0.0968429,-0.162775,-0.133262,0.435777,1.85662,0.0351098,-10.5308,-1.56954,0.0607824,-1.23467,1.85662,0.0351098,-0.737087,
6.90747,-139.008,-15.4922,71.7064,-0.10088,0.581878,0.724643,-0.355152,0.160885,2.69036,-0.164247,-4.18552,-8.90014,-4.1971,0.319036,0.343451,0.120057,23.1075,99.051,0.024999,0.171471,4.0005,-0.203387,-0.110006,-0.222809,-0.0968429,-0.162775,-0.133262,0.435777,1.85662,0.0351098,-10.5308,-1.56954,0.0607824,-1.23467,1.85662,0.0351098,-0.737087,
6.9327,-135.533,-14.1015,71.1372,-0.126008,0.572138,0.720232,-0.371546,0.258886,2.43961,-0.17001,-3.68419,-8.79572,-4.14871,0.311576,0.346719,0.138348,23.1,99.047,0.025,0.315985,3.6298,-0.23848,-0.100783,-0.220404,-0.103227,-0.164018,-0.134617,0.437505,1.62767,0.0811868,-10.271,-1.29803,0.192784,-1.07779,1.62767,0.0811868,-0.477271,
6.95793,-135.533,-14.1015,71.1372,-0.126008,0.572138,0.720232,-0.371546,0.258886,2.43961,-0.17001,-3.68419,-8.79572,-4.14871,0.311576,0.346719,0.138348,23.1,99.047,0.025,0.315985,3.6298,-0.23848,-0.100783,-0.220404,-0.103227,-0.164018,-0.134617,0.437505,1.62767,0.0811868,-10.271,-1.29803,0.192784,-1.07779,1.62767,0.0811868,-0.477271,
6.98316,-129.419,-11.6355,70.6057,-0.170816,0.555158,0.709061,-0.399817,0.295402,2.08042,-0.0785089,-2.77309,-8.81751,-3.4557,0.297486,0.345254,0.16405,23.1,99.047,0.025,0.416665,3.09637,-0.142485,-0.0787402,-0.222157,-0.0818814,-0.167307,-0.140405,0.432325,0.76875,0.41303,-9.82949,-0.797841,0.230661,-0.270358,0.76875,0.41303,-0.0357428,
7.00836,-129.419,-11.6355,70.6057,-0.170816,0.555158,0.709061,-0.399817,0.295402,2.08042,-0.0785089,-2.77309,-8.81751,-3.4557,0.297486,0.345254,0.16405,23.1,99.047,0.025,0.416665,3.09637,-0.142485,-0.0787402,-0.222157,-0.0818814,-0.167307,-0.140405,0.432325,0.76875,0.41303,-9.82949,-0.797841,0.230661,-0.270358,0.76875,0.41303,-0.0357428,
7.03363,-124.316,-10.0148,70.5701,-0.205748,0.542103,0.695493,-0.424361,0.351303,1.61229,0.16803,-1.94235,-8.56362,-3.82533,0.281578,0.352674,0.178569,23.1,99.047,0.024999,0.479531,2.46153,0.171662,-0.0488686,-0.214668,-0.0961871,-0.160083,-0.143922,0.434985,0.788503,-0.190671,-9.54376,-0.239197,0.531636,-0.617038,0.788503,-0.190671,0.24999,
7.05887,-120.483,-9.59162,70.981,-0.228058,0.536029,0.680272,-0.444852,0.381995,1.02289,0.38741,-2.19637,-8.70136,-3.38591,0.275917,0.348944,0.19262,23.105,99.051,0.025001,0.5372,1.64559,0.508,-0.0559469,-0.21733,-0.0861889,-0.163759,-0.143377,0.433152,0.624952,0.341241,-9.56531,-0.564497,0.428309,-0.238929,0.624952,0.341241,0.228435,
7.08459,-120.483,-9.59162,70.981,-0.228058,0.536029,0.680272,-0.444852,0.381995,1.02289,0.38741,-2.19637,-8.70136,-3.38591,0.275917,0.348944,0.19262,23.105,99.051,0.025001,0.5372,1.64559,0.508,-0.0559469,-0.21733,-0.0861889,-0.163759,-0.143377,0.433152,0.624952,0.341241,-9.56531,-0.564497,0.428309,-0.238929,0.624952,0.341241,0.228435,
7.10988,-119.146,-9.79082,71.3263,-0.234405,0.536001,0.672808,-0.452864,0.410313,0.696381,0.450691,-2.30454,-8.65876,-3.44473,0.275954,0.352887,0.190382,23.1025,99.047,0.024999,0.567919,1.18562,0.623232,-0.0557389,-0.216553,-0.0861768,-0.158547,-0.145986,0.436436,0.764193,0.362164,-9.56222,-0.639094,0.484284,-0.354664,0.764193,0.362164,0.231527,
7.13524,-119.146,-9.79082,71.3263,-0.234405,0.536001,0.672808,-0.452864,0.410313,0.696381,0.450691,-2.30454,-8.65876,-3.44473,0.275954,0.352887,0.190382,23.1025,99.047,0.024999,0.567919,1.18562,0.623232,-0.0557389,-0.216553,-0.0861768,-0.158547,-0.145986,0.436436,0.764193,0.362164,-9.56222,-0.639094,0.484284,-0.354664,0.764193,0.362164,0.231527,
7.16051,-117.609,-10.7055,72.2882,-0.23973,0.541352,0.659258,-0.463515,0.435154,0.208556,0.469629,-2.56264,-8.4616,-2.51142,0.280694,0.355728,0.189495,23.1,99.047,0.025,0.622137,0.404521,0.683645,-0.0628494,-0.213359,-0.0702588,-0.157742,-0.145631,0.441756,0.246071,0.863003,-9.147,-0.743337,0.70553,0.416267,0.246071,0.863003,0.646742,
7.18575,-116.81,-11.8609,73.1985,-0.240036,0.54858,0.647893,-0.470827,0.294161,0.139391,0.465704,-2.61667,-8.57781,-1.49029,0.285315,0.347683,0.187609,23.1025,99.047,0.024999,0.475173,0.190546,0.676031,-0.0633084,-0.212286,-0.0404673,-0.160655,-0.142526,0.43745,-0.585804,1.175,-8.99572,-0.6037,0.597684,1.28022,-0.585804,1.175,0.798026,
7.21099,-116.81,-11.8609,73.1985,-0.240036,0.54858,0.647893,-0.470827,0.294161,0.139391,0.465704,-2.61667,-8.57781,-1.49029,0.285315,0.347683,0.187609,23.1025,99.047,0.024999,0.475173,0.190546,0.676031,-0.0633084,-0.212286,-0.0404673,-0.160655,-0.142526,0.43745,-0.585804,1.175,-8.99572,-0.6037,0.597684,1.28022,-0.585804,1.175,0.798026,
7.2362,-116.073,-12.9902,73.5866,-0.238176,0.552815,0.639161,-0.478686,0.127448,0.0740495,0.428553,-2.70664,-9.10211,-2.38773,0.291842,0.341568,0.185802,23.1075,99.036,0.024999,0.210831,0.16023,0.637685,-0.0677118,-0.226475,-0.053415,-0.160827,-0.142764,0.436023,-0.022974,0.593583,-9.77357,-0.505158,0.0521017,0.30883,-0.022974,0.593583,0.0201797,
7.26144,-116.073,-12.9902,73.5866,-0.238176,0.552815,0.639161,-0.478686,0.127448,0.0740495,0.428553,-2.70664,-9.10211,-2.38773,0.291842,0.341568,0.185802,23.1075,99.036,0.024999,0.210831,0.16023,0.637685,-0.0677118,-0.226475,-0.053415,-0.160827,-0.142764,0.436023,-0.022974,0.593583,-9.77357,-0.505158,0.0521017,0.30883,-0.022974,0.593583,0.0201797,
7.28666,-115.9,-13.5538,73.7087,-0.236027,0.554921,0.635909,-0.481637,0.108881,-0.0514995,0.398301,-2.74451,-9.12766,-2.72099,0.294659,0.340508,0.185956,23.1,99.047,0.025001,0.159103,0.00504836,0.596938,-0.0670995,-0.228454,-0.0660895,-0.160961,-0.14154,0.437501,0.236503,0.36977,-9.90241,-0.449259,0.0110427,-0.0501496,0.236503,0.36977,-0.10866,
7.31182,-115.9,-13.5538,73.7087,-0.236027,0.554921,0.635909,-0.481637,0.108881,-0.0514995,0.398301,-2.74451,-9.12766,-2.72099,0.294659,0.340508,0.185956,23.1,99.047,0.025001,0.159103,0.00504836,0.596938,-0.0670995,-0.228454,-0.0660895,-0.160961,-0.14154,0.437501,0.236503,0.36977,-9.90241,-0.449259,0.0110427,-0.0501496,0.236503,0.36977,-0.10866,
7.33709,-116.086,-14.6637,74.0354,-0.229601,0.560572,0.631237,-0.484336,0.0809172,-0.237142,0.308312,-3.29304,-9.02333,-2.16175,0.297459,0.339408,0.179508,23.1,99.058,0.025,0.126014,-0.296971,0.484253,-0.0781395,-0.225849,-0.0576859,-0.155882,-0.138199,0.438754,0.00666821,0.931062,-9.80158,-0.813799,0.0859926,0.444207,0.00666821,0.931062,-0.00782967,
7.36233,-116.637,-15.5367,74.3132,-0.22263,0.56585,0.62912,-0.484207,0.0122497,-0.261028,0.195116,-3.1463,-9.1212,-2.37428,0.308751,0.33812,0.177895,23.105,99.047,0.025001,0.0373226,-0.376321,0.315297,-0.0804254,-0.22727,-0.0560762,-0.159873,-0.140641,0.442673,0.0662252,0.534227,-9.92184,-0.522993,-0.0367694,0.176969,0.0662252,0.534227,-0.128093,
7.3876,-116.637,-15.5367,74.3132,-0.22263,0.56585,0.62912,-0.484207,0.0122497,-0.261028,0.195116,-3.1463,-9.1212,-2.37428,0.308751,0.33812,0.177895,23.105,99.047,0.025001,0.0373226,-0.376321,0.315297,-0.0804254,-0.22727,-0.0560762,-0.159873,-0.140641,0.442673,0.0662252,0.534227,-9.92184,-0.522993,-0.0367694,0.176969,0.0662252,0.534227,-0.128093,
7.41281,-117.289,-16.1641,74.4581,-0.216092,0.569762,0.628925,-0.482834,-0.022774,-0.286798,0.123965,-2.62401,-9.32097,-2.84324,0.311488,0.332055,0.168192,23.1,99.047,0.025001,-0.0316558,-0.395508,0.201691,-0.0676799,-0.232788,-0.0695166,-0.155518,-0.142079,0.437266,0.126955,-0.281296,-10.0874,0.102465,-0.258343,-0.322817,0.126955,-0.281296,-0.29361,
7.43805,-117.289,-16.1641,74.4581,-0.216092,0.569762,0.628925,-0.482834,-0.022774,-0.286798,0.123965,-2.62401,-9.32097,-2.84324,0.311488,0.332055,0.168192,23.1,99.047,0.025001,-0.0316558,-0.395508,0.201691,-0.0676799,-0.232788,-0.0695166,-0.155518,-0.142079,0.437266,0.126955,-0.281296,-10.0874,0.102465,-0.258343,-0.322817,0.126955,-0.281296,-0.29361,
7.46339,-117.665,-16.4353,74.5306,-0.212822,0.571659,0.629185,-0.481704,-0.0218735,-0.299346,0.109044,-2.57256,-9.25156,-2.84096,0.311489,0.33206,0.169292,23.1,99.047,0.024999,-0.0360879,-0.418663,0.173321,-0.0629808,-0.232572,-0.0717597,-0.156807,-0.138463,0.438394,0.114298,-0.36441,-10.0067,0.198401,-0.198287,-0.33547,0.114298,-0.36441,-0.212983,
7.48862,-118.46,-16.9318,74.727,-0.206548,0.57562,0.629766,-0.478951,-0.00136155,-0.282651,0.0877615,-2.72089,-8.72412,-2.49811,0.316137,0.32697,0.165178,23.1,99.036,0.025,-0.0106945,-0.424348,0.13861,-0.0671274,-0.220866,-0.0647709,-0.158675,-0.139093,0.435443,0.0793515,-0.0881988,-9.47312,0.13138,0.31418,-0.0300949,0.0793515,-0.0881988,0.320624,
7.51384,-118.46,-16.9318,74.727,-0.206548,0.57562,0.629766,-0.478951,-0.00136155,-0.282651,0.0877615,-2.72089,-8.72412,-2.49811,0.316137,0.32697,0.165178,23.1,99.036,0.025,-0.0106945,-0.424348,0.13861,-0.0671274,-0.220866,-0.0647709,-0.158675,-0.139093,0.435443,0.0793515,-0.0881988,-9.47312,0.13138,0.31418,-0.0300949,0.0793515,-0.0881988,0.320624,
7.53908,-118.946,-17.2875,74.8541,-0.202392,0.578187,0.629888,-0.47747,-0.0196437,-0.0926616,0.0673508,-2.89132,-8.74027,-2.42,0.317079,0.327909,0.160816,23.1,99.047,0.024999,-0.0198275,-0.194866,0.110392,-0.0742132,-0.217663,-0.060233,-0.155828,-0.138036,0.436565,0.0775746,0.0321957,-9.51847,0.0190516,0.286223,0.0232909,0.0775746,0.0321957,0.275271,
7.56432,-118.946,-17.2875,74.8541,-0.202392,0.578187,0.629888,-0.47747,-0.0196437,-0.0926616,0.0673508,-2.89132,-8.74027,-2.42,0.317079,0.327909,0.160816,23.1,99.047,0.024999,-0.0198275,-0.194866,0.110392,-0.0742132,-0.217663,-0.060233,-0.155828,-0.138036,0.436565,0.0775746,0.0321957,-9.51847,0.0190516,0.286223,0.0232909,0.0775746,0.0321957,0.275271,
7.58958,-118.978,-17.3976,74.8207,-0.201393,0.578368,0.6298,-0.477789,-0.0378453,-0.0115838,0.0720464,-2.67207,-8.85475,-2.43019,0.319067,0.336781,0.16413,23.1,99.047,0.025001,-0.0461232,-0.056433,0.106626,-0.0685592,-0.220437,-0.060483,-0.155629,-0.136073,0.446573,-0.0712776,-0.184158,-9.56104,0.256266,0.164898,0.0168997,-0.0712776,-0.184158,0.232711,
7.61488,-118.978,-17.3976,74.8207,-0.201393,0.578368,0.6298,-0.477789,-0.0378453,-0.0115838,0.0720464,-2.67207,-8.85475,-2.43019,0.319067,0.336781,0.16413,23.1,99.047,0.025001,-0.0461232,-0.056433,0.106626,-0.0685592,-0.220437,-0.060483,-0.155629,-0.136073,0.446573,-0.0712776,-0.184158,-9.56104,0.256266,0.164898,0.0168997,-0.0712776,-0.184158,0.232711,
7.64021,-118.83,-17.5733,74.6034,-0.200122,0.577405,0.629652,-0.479681,-0.0685885,0.0444349,0.0614711,-3.18762,-9.05817,-2.58556,0.319911,0.32785,0.163161,23.1,99.058,0.025,-0.100664,0.0640986,0.108245,-0.0763313,-0.225689,-0.0618264,-0.156294,-0.138235,0.439219,0.170908,0.128357,-9.94238,-0.230644,-0.0565689,-0.106675,0.170908,0.128357,-0.148631,
7.66543,-118.732,-17.6638,74.4253,-0.199299,0.576509,0.629812,-0.480889,-0.0368266,0.00415234,0.0264838,-2.91155,-9.08884,-2.51513,0.318016,0.326909,0.163075,23.1,99.047,0.025001,-0.0625623,0.0180892,0.0514346,-0.0748805,-0.226474,-0.0649748,-0.154127,-0.136957,0.438275,-0.0572784,-0.0680405,-9.86925,0.0601752,-0.0994968,-0.00954682,-0.0572784,-0.0680405,-0.0755081,
7.69065,-118.732,-17.6638,74.4253,-0.199299,0.576509,0.629812,-0.480889,-0.0368266,0.00415234,0.0264838,-2.91155,-9.08884,-2.51513,0.318016,0.326909,0.163075,23.1,99.047,0.025001,-0.0625623,0.0180892,0.0514346,-0.0748805,-0.226474,-0.0649748,-0.154127,-0.136957,0.438275,-0.0572784,-0.0680405,-9.86925,0.0601752,-0.0994968,-0.00954682,-0.0572784,-0.0680405,-0.0755081,
7.71589,-118.656,-17.7214,74.2558,-0.198605,0.575606,0.630139,-0.481828,-0.0714395,0.0344045,0.0311245,-2.6152,-9.12205,-2.19358,0.32083,0.324879,0.166538,23.08,99.043,0.025001,-0.0912975,0.040883,0.0490797,-0.0672311,-0.22933,-0.0547572,-0.157615,-0.137989,0.438555,-0.493208,-0.143628,-9.72621,0.365908,-0.143043,0.337778,-0.493208,-0.143628,0.0675392,
7.74114,-118.656,-17.7214,74.2558,-0.198605,0.575606,0.630139,-0.481828,-0.0714395,0.0344045,0.0311245,-2.6152,-9.12205,-2.19358,0.32083,0.324879,0.166538,23.08,99.043,0.025001,-0.0912975,0.040883,0.0490797,-0.0672311,-0.22933,-0.0547572,-0.157615,-0.137989,0.438555,-0.493208,-0.143628,-9.72621,0.365908,-0.143043,0.337778,-0.493208,-0.143628,0.0675392,
7.76636,-118.572,-17.7531,74.1042,-0.198191,0.574715,0.630431,-0.48268,-0.0981023,0.0623724,0.0382911,-2.78602,-9.07793,-2.36999,0.318994,0.329859,0.164195,23.1,99.047,0.024999,-0.129231,0.0711164,0.061648,-0.0669161,-0.227273,-0.0574581,-0.151817,-0.137493,0.442234,-0.280638,-0.082574,-9.78275,0.200244,-0.107237,0.184661,-0.280638,-0.082574,0.0110006,
7.79161,-118.243,-17.6825,73.623,-0.19825,0.571296,0.631701,-0.485047,-0.169557,0.144715,-0.0296606,-3.39761,-8.81514,-2.39319,0.319896,0.324922,0.169791,23.1,99.058,0.024999,-0.220785,0.195251,-0.00877828,-0.0846738,-0.222413,-0.0597342,-0.155339,-0.138538,0.439788,0.0523652,0.497711,-9.7328,-0.42284,0.137308,0.237752,0.0523652,0.497711,0.0609474,
7.81683,-118.243,-17.6825,73.623,-0.19825,0.571296,0.631701,-0.485047,-0.169557,0.144715,-0.0296606,-3.39761,-8.81514,-2.39319,0.319896,0.324922,0.169791,23.1,99.058,0.024999,-0.220785,0.195251,-0.00877828,-0.0846738,-0.222413,-0.0597342,-0.155339,-0.138538,0.439788,0.0523652,0.497711,-9.7328,-0.42284,0.137308,0.237752,0.0523652,0.497711,0.0609474,
7.84207,-118.056,-17.4257,72.9847,-0.1981,0.566708,0.634996,-0.486188,-0.233133,0.00584455,-0.101982,-3.59218,-8.86297,-2.00776,0.316113,0.323058,0.172917,23.1,99.047,0.024999,-0.317801,0.0697877,-0.114186,-0.0867391,-0.220466,-0.0512478,-0.153709,-0.137845,0.437683,-0.25897,0.946401,-9.72237,-0.659265,0.0722737,0.726623,-0.25897,0.946401,0.0713806,
7.8673,-118.056,-17.4257,72.9847,-0.1981,0.566708,0.634996,-0.486188,-0.233133,0.00584455,-0.101982,-3.59218,-8.86297,-2.00776,0.316113,0.323058,0.172917,23.1,99.047,0.024999,-0.317801,0.0697877,-0.114186,-0.0867391,-0.220466,-0.0512478,-0.153709,-0.137845,0.437683,-0.25897,0.946401,-9.72237,-0.659265,0.0722737,0.726623,-0.25897,0.946401,0.0713806,
7.89249,-118.422,-17.0668,72.3651,-0.19596,0.562845,0.640862,-0.483839,-0.245504,-0.137267,-0.198301,-3.73728,-9.00921,-3.12356,0.312352,0.325101,0.167205,23.1,99.047,0.025,-0.370382,-0.155879,-0.252623,-0.0982709,-0.22525,-0.0715735,-0.145288,-0.140597,0.436275,0.586556,0.56396,-10.2092,-0.862955,-0.0867254,-0.287206,0.586556,0.56396,-0.415453,
7.91775,-118.422,-17.0668,72.3651,-0.19596,0.562845,0.640862,-0.483839,-0.245504,-0.137267,-0.198301,-3.73728,-9.00921,-3.12356,0.312352,0.325101,0.167205,23.1,99.047,0.025,-0.370382,-0.155879,-0.252623,-0.0982709,-0.22525,-0.0715735,-0.145288,-0.140597,0.436275,0.586556,0.56396,-10.2092,-0.862955,-0.0867254,-0.287206,0.586556,0.56396,-0.415453,
7.94299,-118.772,-16.868,72.159,-0.194641,0.561709,0.644044,-0.481461,-0.192351,-0.212068,-0.202454,-3.24744,-9.02291,-3.27441,0.313284,0.323124,0.171672,23.1,99.047,0.025001,-0.311441,-0.256241,-0.283472,-0.0865199,-0.225735,-0.0802411,-0.150466,-0.140175,0.43559,0.46514,0.114637,-10.1218,-0.405608,-0.101252,-0.402934,0.46514,0.114637,-0.328069,
7.96822,-119.795,-16.6556,72.0868,-0.190684,0.562409,0.649399,-0.474991,-0.0865213,-0.352884,-0.153944,-2.74428,-9.07904,-3.11811,0.312384,0.326141,0.175997,23.1,99.047,0.025001,-0.14808,-0.483115,-0.224086,-0.0702026,-0.227102,-0.0785107,-0.155079,-0.135696,0.438707,0.0908766,-0.192406,-9.98186,0.0627894,-0.151043,-0.232181,0.0908766,-0.192406,-0.188111,
7.99344,-119.795,-16.6556,72.0868,-0.190684,0.562409,0.649399,-0.474991,-0.0865213,-0.352884,-0.153944,-2.74428,-9.07904,-3.11811,0.312384,0.326141,0.175997,23.1,99.047,0.025001,-0.14808,-0.483115,-0.224086,-0.0702026,-0.227102,-0.0785107,-0.155079,-0.135696,0.438707,0.0908766,-0.192406,-9.98186,0.0627894,-0.151043,-0.232181,0.0908766,-0.192406,-0.188111,
8.01871,-120.884,-16.5909,72.213,-0.186261,0.564735,0.653484,-0.468337,-0.0570502,-0.303471,-0.114954,-2.0638,-8.93295,-2.79865,0.312372,0.327078,0.167186,23.1,99.047,0.025001,-0.0867944,-0.466056,-0.168489,-0.0546762,-0.224687,-0.071941,-0.151407,-0.137658,0.436616,-0.411632,-0.563611,-9.56045,0.732667,0.0043949,0.0685831,-0.411632,-0.563611,0.233292,
8.04398,-120.884,-16.5909,72.213,-0.186261,0.564735,0.653484,-0.468337,-0.0570502,-0.303471,-0.114954,-2.0638,-8.93295,-2.79865,0.312372,0.327078,0.167186,23.1,99.047,0.025001,-0.0867944,-0.466056,-0.168489,-0.0546762,-0.224687,-0.071941,-0.151407,-0.137658,0.436616,-0.411632,-0.563611,-9.56045,0.732667,0.0043949,0.0685831,-0.411632,-0.563611,0.233292,
8.06923,-121.483,-16.526,72.1864,-0.18362,0.565368,0.656271,-0.464705,-0.0766403,-0.0880376,-0.0615804,-2.19359,-8.94326,-2.81932,0.314268,0.328019,0.167273,23.1,99.036,0.025001,-0.111468,-0.174289,-0.0888917,-0.0526541,-0.221665,-0.0680792,-0.153584,-0.138005,0.437844,-0.338874,-0.454198,-9.61359,0.592246,-0.00423673,0.0530386,-0.338874,-0.454198,0.180153,
8.09451,-121.546,-16.4805,72.1114,-0.183299,0.564914,0.657049,-0.464285,-0.058853,0.0162454,-0.0274324,-2.07829,-9.02153,-2.90226,0.312448,0.33497,0.16381,23.1,99.047,0.025,-0.0962441,-0.0413803,-0.0526236,-0.0523496,-0.225589,-0.0751858,-0.147137,-0.138374,0.442567,-0.371719,-0.58799,-9.67712,0.700084,-0.0841712,-0.0175371,-0.371719,-0.58799,0.11663,
8.11978,-121.546,-16.4805,72.1114,-0.183299,0.564914,0.657049,-0.464285,-0.058853,0.0162454,-0.0274324,-2.07829,-9.02153,-2.90226,0.312448,0.33497,0.16381,23.1,99.047,0.025,-0.0962441,-0.0413803,-0.0526236,-0.0523496,-0.225589,-0.0751858,-0.147137,-0.138374,0.442567,-0.371719,-0.58799,-9.67712,0.700084,-0.0841712,-0.0175371,-0.371719,-0.58799,0.11663,
8.14509,-121.286,-16.4333,71.9234,-0.18412,0.563288,0.657078,-0.465892,-0.0207516,0.131025,0.0374051,-2.34027,-8.94771,-3.0427,0.311417,0.325147,0.171555,23.1075,99.047,0.024999,-0.0472517,0.165271,0.0478928,-0.056792,-0.225242,-0.0754043,-0.155038,-0.135364,0.435629,-0.123415,-0.426749,-9.72621,0.430376,-0.0176944,-0.127949,-0.123415,-0.426749,0.0675402,
8.17038,-121.286,-16.4333,71.9234,-0.18412,0.563288,0.657078,-0.465892,-0.0207516,0.131025,0.0374051,-2.34027,-8.94771,-3.0427,0.311417,0.325147,0.171555,23.1075,99.047,0.024999,-0.0472517,0.165271,0.0478928,-0.056792,-0.225242,-0.0754043,-0.155038,-0.135364,0.435629,-0.123415,-0.426749,-9.72621,0.430376,-0.0176944,-0.127949,-0.123415,-0.426749,0.0675402,
8.19568,-120.689,-16.3971,71.7297,-0.186491,0.561112,0.655715,-0.469481,-0.00729387,0.255947,0.0439209,-3.24131,-9.03631,-2.96009,0.312376,0.326126,0.173795,23.1,99.036,0.024999,-0.0138701,0.328712,0.0814829,-0.0764911,-0.225204,-0.0724594,-0.154476,-0.137249,0.43754,0.198097,0.376917,-10.037,-0.476615,-0.114533,-0.0146283,0.198097,0.376917,-0.24328,
8.22234,-120.689,-16.3971,71.7297,-0.186491,0.561112,0.655715,-0.469481,-0.00729387,0.255947,0.0439209,-3.24131,-9.03631,-2.96009,0.312376,0.326126,0.173795,23.1,99.036,0.024999,-0.0138701,0.328712,0.0814829,-0.0764911,-0.225204,-0.0724594,-0.154476,-0.137249,0.43754,0.198097,0.376917,-10.037,-0.476615,-0.114533,-0.0146283,0.198097,0.376917,-0.24328,
8.24772,-119.893,-16.1932,71.563,-0.191004,0.558266,0.653945,-0.473511,0.0569493,0.259737,-0.0017523,-2.95343,-9.09078,-3.40627,0.311428,0.326137,0.171546,23.1,99.047,0.025,0.0516609,0.393049,0.0161772,-0.0770293,-0.226708,-0.0851307,-0.150178,-0.14166,0.436073,0.37412,-0.0642539,-10.1402,-0.222181,-0.168337,-0.43177,0.37412,-0.0642539,-0.346457,
8.27302,-119.552,-16.0834,71.5865,-0.193465,0.557509,0.652794,-0.474989,0.0991362,0.226291,0.00358739,-2.60519,-9.13743,-3.27938,0.309555,0.326211,0.175851,23.1,99.036,0.025001,0.115629,0.346958,0.00892145,-0.0688228,-0.228402,-0.0835177,-0.152327,-0.139297,0.436525,0.104406,-0.272482,-10.0473,0.108024,-0.208813,-0.306887,0.104406,-0.272482,-0.253584,
8.29827,-119.552,-16.0834,71.5865,-0.193465,0.557509,0.652794,-0.474989,0.0991362,0.226291,0.00358739,-2.60519,-9.13743,-3.27938,0.309555,0.326211,0.175851,23.1,99.036,0.025001,0.115629,0.346958,0.00892145,-0.0688228,-0.228402,-0.0835177,-0.152327,-0.139297,0.436525,0.104406,-0.272482,-10.0473,0.108024,-0.208813,-0.306887,0.104406,-0.272482,-0.253584,
8.32351,-118.975,-15.9958,71.7934,-0.197695,0.557443,0.649686,-0.477579,0.14791,0.177138,0.0638541,-2.28659,-8.98819,-3.04548,0.306768,0.331196,0.170159,23.1,99.058,0.025001,0.197833,0.26297,0.0795088,-0.0572277,-0.224989,-0.0771642,-0.144637,-0.141143,0.438075,-0.127913,-0.40584,-9.75243,0.412246,-0.0449683,-0.103951,-0.127913,-0.40584,0.041317,
8.34875,-118.975,-15.9958,71.7934,-0.197695,0.557443,0.649686,-0.477579,0.14791,0.177138,0.0638541,-2.28659,-8.98819,-3.04548,0.306768,0.331196,0.170159,23.1,99.058,0.025001,0.197833,0.26297,0.0795088,-0.0572277,-0.224989,-0.0771642,-0.144637,-0.141143,0.438075,-0.127913,-0.40584,-9.75243,0.412246,-0.0449683,-0.103951,-0.127913,-0.40584,0.041317,
8.37405,-118.346,-16.0948,72.0777,-0.201314,0.558248,0.645331,-0.481019,0.168837,0.215986,0.126536,-2.39304,-8.80729,-3.07962,0.308651,0.329215,0.177976,23.1,99.047,0.025,0.234756,0.289337,0.173286,-0.0578497,-0.220122,-0.0779235,-0.152237,-0.138905,0.43915,0.0574849,-0.356684,-9.62542,0.322054,0.145962,-0.183954,0.0574849,-0.356684,0.168329,
8.3993,-117.955,-16.1778,72.2161,-0.203272,0.558582,0.642726,-0.483291,0.1745,0.238851,0.142215,-2.44668,-8.80133,-2.88158,0.311454,0.327159,0.177039,23.1,99.047,0.025,0.24497,0.333191,0.204198,-0.0610398,-0.219914,-0.0739542,-0.153116,-0.142056,0.437898,-0.0588264,-0.22969,-9.57585,0.282049,0.155138,-0.00874759,-0.0588264,-0.22969,0.217894,
8.42453,-117.955,-16.1778,72.2161,-0.203272,0.558582,0.642726,-0.483291,0.1745,0.238851,0.142215,-2.44668,-8.80133,-2.88158,0.311454,0.327159,0.177039,23.1,99.047,0.025,0.24497,0.333191,0.204198,-0.0610398,-0.219914,-0.0739542,-0.153116,-0.142056,0.437898,-0.0588264,-0.22969,-9.57585,0.282049,0.155138,-0.00874759,-0.0588264,-0.22969,0.217894,
8.44983,-117.078,-16.3666,72.446,-0.207326,0.55886,0.637226,-0.488502,0.15521,0.272762,0.156381,-2.67108,-8.83387,-2.69004,0.307669,0.32529,0.179066,23.095,99.031,0.024999,0.227048,0.385048,0.232381,-0.0652863,-0.220526,-0.0671763,-0.152328,-0.138424,0.436089,-0.106435,0.0105226,-9.61233,0.0886177,0.125435,0.1441,-0.106435,0.0105226,0.181418,
8.47506,-117.078,-16.3666,72.446,-0.207326,0.55886,0.637226,-0.488502,0.15521,0.272762,0.156381,-2.67108,-8.83387,-2.69004,0.307669,0.32529,0.179066,23.095,99.031,0.024999,0.227048,0.385048,0.232381,-0.0652863,-0.220526,-0.0671763,-0.152328,-0.138424,0.436089,-0.106435,0.0105226,-9.61233,0.0886177,0.125435,0.1441,-0.106435,0.0105226,0.181418,
8.5003,-116.087,-16.5243,72.5699,-0.211694,0.558212,0.631812,-0.494367,0.129698,0.32422,0.147875,-2.89757,-8.96123,-2.72178,0.308602,0.324277,0.179124,23.1,99.036,0.025,0.191182,0.451339,0.22355,-0.072162,-0.223306,-0.0683269,-0.150942,-0.140542,0.435822,-0.0282986,0.141091,-9.80239,-0.112014,-0.0030971,0.0906952,-0.0282986,0.141091,-0.00864697,
8.52566,-116.087,-16.5243,72.5699,-0.211694,0.558212,0.631812,-0.494367,0.129698,0.32422,0.147875,-2.89757,-8.96123,-2.72178,0.308602,0.324277,0.179124,23.1,99.036,0.025,0.191182,0.451339,0.22355,-0.072162,-0.223306,-0.0683269,-0.150942,-0.140542,0.435822,-0.0282986,0.141091,-9.80239,-0.112014,-0.0030971,0.0906952,-0.0282986,0.141091,-0.00864697,
8.55096,-115.019,-16.631,72.5982,-0.216342,0.556701,0.626655,-0.500583,0.106538,0.318953,0.141424,-3.01644,-8.99603,-2.67005,0.306732,0.325326,0.181218,23.085,99.058,0.025,0.154673,0.468448,0.212213,-0.0739894,-0.224458,-0.0661655,-0.148692,-0.139771,0.437169,-0.0425956,0.245925,-9.85365,-0.21341,-0.0414738,0.136446,-0.0425956,0.245925,-0.0598993,
8.57621,-114.524,-16.6831,72.6068,-0.218454,0.555973,0.624259,-0.503461,0.104744,0.294825,0.128064,-3.18956,-8.96652,-2.88584,0.308705,0.332234,0.18675,23.1,99.047,0.025001,0.147903,0.4382,0.20095,-0.0789046,-0.224809,-0.0703574,-0.150093,-0.138899,0.445795,0.21272,0.289038,-9.93836,-0.37799,-0.0139809,-0.081459,0.21272,0.289038,-0.144618,
8.60146,-114.524,-16.6831,72.6068,-0.218454,0.555973,0.624259,-0.503461,0.104744,0.294825,0.128064,-3.18956,-8.96652,-2.88584,0.308705,0.332234,0.18675,23.1,99.047,0.025001,0.147903,0.4382,0.20095,-0.0789046,-0.224809,-0.0703574,-0.150093,-0.138899,0.445795,0.21272,0.289038,-9.93836,-0.37799,-0.0139809,-0.081459,0.21272,0.289038,-0.144618,
8.62673,-113.677,-16.7457,72.6475,-0.222348,0.554762,0.620094,-0.508217,0.0882882,0.23099,0.0878882,-3.17412,-8.86764,-2.66281,0.307676,0.32434,0.185677,23.1,99.047,0.025001,0.13326,0.355435,0.145018,-0.079838,-0.221552,-0.0675818,-0.149807,-0.141201,0.43813,0.0549138,0.3821,-9.78017,-0.352301,0.083948,0.134304,0.0549138,0.3821,0.0135803,
8.65202,-113.677,-16.7457,72.6475,-0.222348,0.554762,0.620094,-0.508217,0.0882882,0.23099,0.0878882,-3.17412,-8.86764,-2.66281,0.307676,0.32434,0.185677,23.1,99.047,0.025001,0.13326,0.355435,0.145018,-0.079838,-0.221552,-0.0675818,-0.149807,-0.141201,0.43813,0.0549138,0.3821,-9.78017,-0.352301,0.083948,0.134304,0.0549138,0.3821,0.0135803,
8.67728,-113.072,-16.7751,72.6794,-0.225237,0.553845,0.617137,-0.511533,0.0653291,0.155486,0.0567326,-3.1945,-8.89726,-2.69088,0.306699,0.322354,0.180146,23.1,99.047,0.025001,0.0933375,0.248892,0.0972509,-0.0789886,-0.222069,-0.0685707,-0.14413,-0.14442,0.434509,0.0736828,0.377194,-9.82137,-0.367874,0.0545007,0.100824,0.0736828,0.377194,-0.0276194,
8.70256,-112.656,-16.7802,72.6983,-0.227295,0.553143,0.615169,-0.513748,0.0312824,0.127031,0.0340501,-3.03222,-8.84379,-2.68961,0.307702,0.32633,0.187858,23.1,99.047,0.025001,0.0531415,0.178583,0.0608199,-0.0773491,-0.221711,-0.0643838,-0.148574,-0.142269,0.440622,0.0328693,0.240372,-9.72533,-0.204748,0.108654,0.0990552,0.0328693,0.240372,0.0684147,
8.72784,-112.656,-16.7802,72.6983,-0.227295,0.553143,0.615169,-0.513748,0.0312824,0.127031,0.0340501,-3.03222,-8.84379,-2.68961,0.307702,0.32633,0.187858,23.1,99.047,0.025001,0.0531415,0.178583,0.0608199,-0.0773491,-0.221711,-0.0643838,-0.148574,-0.142269,0.440622,0.0328693,0.240372,-9.72533,-0.204748,0.108654,0.0990552,0.0328693,0.240372,0.0684147,
8.75313,-112.467,-16.7703,72.6808,-0.22819,0.552641,0.614443,-0.514759,0.024778,0.106959,0.0243861,-3.1182,-8.94839,-2.56698,0.304857,0.324431,0.188833,23.1,99.047,0.024999,0.0335986,0.17841,0.0516365,-0.0765446,-0.222581,-0.0658313,-0.148536,-0.140182,0.438335,-0.0823715,0.358951,-9.81073,-0.292359,0.00367345,0.224571,-0.0823715,0.358951,-0.0169878,
8.77837,-112.467,-16.7703,72.6808,-0.22819,0.552641,0.614443,-0.514759,0.024778,0.106959,0.0243861,-3.1182,-8.94839,-2.56698,0.304857,0.324431,0.188833,23.1,99.047,0.024999,0.0335986,0.17841,0.0516365,-0.0765446,-0.222581,-0.0658313,-0.148536,-0.140182,0.438335,-0.0823715,0.358951,-9.81073,-0.292359,0.00367345,0.224571,-0.0823715,0.358951,-0.0169878,
8.80367,-112.279,-16.7469,72.6642,-0.229168,0.552101,0.613763,-0.515715,0.0051797,0.0263912,-0.00181725,-3.1077,-8.89489,-2.64735,0.305792,0.324393,0.18668,23.1,99.047,0.025001,0.0083117,0.066324,0.0141777,-0.0766305,-0.222965,-0.0665708,-0.146563,-0.142653,0.437902,0.000369072,0.326215,-9.78156,-0.285683,0.0574543,0.147136,0.000369072,0.326215,0.0121832,
8.82891,-112.279,-16.7469,72.6642,-0.229168,0.552101,0.613763,-0.515715,0.0051797,0.0263912,-0.00181725,-3.1077,-8.89489,-2.64735,0.305792,0.324393,0.18668,23.1,99.047,0.025001,0.0083117,0.066324,0.0141777,-0.0766305,-0.222965,-0.0665708,-0.146563,-0.142653,0.437902,0.000369072,0.326215,-9.78156,-0.285683,0.0574543,0.147136,0.000369072,0.326215,0.0121832,
8.85419,-112.375,-16.7286,72.6875,-0.228923,0.552358,0.61415,-0.515087,-0.00557136,-0.0656507,-0.0302116,-3.08663,-8.85329,-2.69813,0.305813,0.325407,0.19107,23.1,99.047,0.024999,-0.0089637,-0.069844,-0.0274261,-0.077868,-0.221647,-0.0675481,-0.150352,-0.140421,0.439995,0.0568841,0.292378,-9.75188,-0.267611,0.101053,0.0929817,0.0568841,0.292378,0.0418615,
8.87944,-112.675,-16.7226,72.7155,-0.227638,0.553087,0.615383,-0.513399,-0.0355146,-0.117305,-0.0332226,-2.87896,-8.858,-2.57906,0.306722,0.323378,0.186736,23.085,99.043,0.025,-0.0462904,-0.150039,-0.0393719,-0.072621,-0.22172,-0.0639127,-0.148704,-0.142638,0.437108,-0.116473,0.160315,-9.66255,-0.0609139,0.0979869,0.207769,-0.116473,0.160315,0.131199,
8.90473,-112.675,-16.7226,72.7155,-0.227638,0.553087,0.615383,-0.513399,-0.0355146,-0.117305,-0.0332226,-2.87896,-8.858,-2.57906,0.306722,0.323378,0.186736,23.085,99.043,0.025,-0.0462904,-0.150039,-0.0393719,-0.072621,-0.22172,-0.0639127,-0.148704,-0.142638,0.437108,-0.116473,0.160315,-9.66255,-0.0609139,0.0979869,0.207769,-0.116473,0.160315,0.131199,
8.93,-112.876,-16.7353,72.7145,-0.226586,0.553521,0.61624,-0.512369,-0.0435986,-0.135641,-0.0346104,-2.95343,-8.87225,-2.74963,0.303908,0.323482,0.192092,23.1,99.047,0.025001,-0.0628605,-0.183996,-0.0386731,-0.0732667,-0.221936,-0.0676658,-0.152607,-0.137122,0.43796,0.0498068,0.145798,-9.74558,-0.133313,0.0830964,0.0371566,0.0498068,0.145798,0.0481682,
8.95715,-112.876,-16.7353,72.7145,-0.226586,0.553521,0.61624,-0.512369,-0.0435986,-0.135641,-0.0346104,-2.95343,-8.87225,-2.74963,0.303908,0.323482,0.192092,23.1,99.047,0.025001,-0.0628605,-0.183996,-0.0386731,-0.0732667,-0.221936,-0.0676658,-0.152607,-0.137122,0.43796,0.0498068,0.145798,-9.74558,-0.133313,0.0830964,0.0371566,0.0498068,0.145798,0.0481682,
8.98239,-113.305,-16.7653,72.7087,-0.224298,0.55443,0.618074,-0.510179,-0.0487461,-0.138997,-0.0327226,-2.8662,-8.94806,-2.77458,0.305824,0.328327,0.18334,23.09,99.036,0.025001,-0.071123,-0.197302,-0.0395386,-0.072008,-0.223008,-0.0688283,-0.145001,-0.1408,0.440557,0.0070436,0.042762,-9.7969,-0.0411817,0.00559483,0.0126854,0.0070436,0.042762,-0.0031538,
9.00762,-113.73,-16.7929,72.6804,-0.221946,0.555191,0.619995,-0.508045,-0.054973,-0.135397,-0.0342778,-2.8659,-8.96827,-2.75867,0.306715,0.322401,0.188945,23.1,99.047,0.025001,-0.0807807,-0.193039,-0.0406225,-0.0710553,-0.223626,-0.0694733,-0.153104,-0.138564,0.437123,-0.0199969,0.0446619,-9.81077,-0.0363568,-0.0173021,0.0326067,-0.0199969,0.0446619,-0.017024,
9.03287,-113.73,-16.7929,72.6804,-0.221946,0.555191,0.619995,-0.508045,-0.054973,-0.135397,-0.0342778,-2.8659,-8.96827,-2.75867,0.306715,0.322401,0.188945,23.1,99.047,0.025001,-0.0807807,-0.193039,-0.0406225,-0.0710553,-0.223626,-0.0694733,-0.153104,-0.138564,0.437123,-0.0199969,0.0446619,-9.81077,-0.0363568,-0.0173021,0.0326067,-0.0199969,0.0446619,-0.017024,
9.05812,-113.914,-16.801,72.6506,-0.220869,0.555412,0.620927,-0.507134,-0.0619974,-0.110389,-0.0246747,-2.75997,-8.92111,-2.70841,0.307776,0.334225,0.18558,23.1,99.047,0.025,-0.0872576,-0.168227,-0.0365169,-0.0694463,-0.223386,-0.0681432,-0.146394,-0.139022,0.447342,-0.0899458,-0.0176598,-9.72269,0.0708973,0.0280279,0.0873998,-0.0899458,-0.0176598,0.0710535,
9.08333,-113.914,-16.801,72.6506,-0.220869,0.555412,0.620927,-0.507134,-0.0619974,-0.110389,-0.0246747,-2.75997,-8.92111,-2.70841,0.307776,0.334225,0.18558,23.1,99.047,0.025,-0.0872576,-0.168227,-0.0365169,-0.0694463,-0.223386,-0.0681432,-0.146394,-0.139022,0.447342,-0.0899458,-0.0176598,-9.72269,0.0708973,0.0280279,0.0873998,-0.0899458,-0.0176598,0.0710535,
9.10851,-114.278,-16.8264,72.5845,-0.218653,0.555831,0.622764,-0.505379,-0.0594036,-0.124345,-0.0302481,-2.87165,-8.8558,-2.73288,0.309566,0.325276,0.18576,23.1,99.036,0.025001,-0.0881974,-0.166182,-0.0333407,-0.0705824,-0.221719,-0.0697137,-0.151101,-0.14069,0.439906,-0.0120263,0.0777582,-9.70227,-0.0366334,0.0889077,0.0728857,-0.0120263,0.0777582,0.0914764,
