Timestamp,Yaw,Pitch,Roll,Qtn[0], Qtn[1], Qtn[2], Qtn[3],Rate X,Rate Y,Rate Z,Accel X,Accel Y,Accel Z,Mag X,Mag Y,Mag Z,Temp,Pres,dTime,dTheta X,dTheta Y,dTheta Z,dVel X,dVel Y,dVel Z,MagNed X,MagNed Y,MagNed Z,AccelNed X,AccelNed Y,AccelNed Z,LinearAccel X,LinearAccel Y,LinearAccel Z,LinearAccelNed X,LinearAccelNed Y,LinearAccelNed Z,Amplitude,Distance,Light 1,Light 2,Light 3,Light 4,Comments
512.695,-139.766,0.419919,-178.985,0.343889,-0.938961,0.00705416,-0.00648621,-7.34E-05,-0.00324323,-0.000234605,0.0602179,0.210815,10.0063,0.965797,0.634102,-0.378382,43.96,101.002,0.025,0.00242239,-0.00119894,0.00884202,0.00111976,0.00553895,0.250644,-1.15317,-0.136412,0.360006,-0.0116653,0.0341224,-10.0086,-0.0115594,0.0373853,0.214305,-0.0116653,0.0341224,-0.214843,0,1000,0,0,0,0,
512.72,-139.767,0.423469,-178.986,0.343882,-0.938964,0.00703429,-0.00651186,1.04E-05,-0.00380961,-0.000746021,0.0316346,0.160115,9.9893,0.963225,0.640737,-0.377194,43.965,101.014,0.024999,0.00233791,-0.00111394,0.00791746,0.00123924,0.00406363,0.250471,-1.15549,-0.1297,0.358672,0.0429496,0.0145789,-9.99054,-0.0407497,-0.013122,0.197359,0.0429496,0.0145789,-0.19679,0,1000,0,0,0,0,
512.745,-139.762,0.430245,-178.989,0.343926,-0.938948,0.00699321,-0.00656022,-0.00109675,-0.00418904,-0.00243265,0.121004,0.133626,9.97928,0.967042,0.635427,-0.379775,43.97,101.002,0.025001,0.00233427,-0.00313736,0.00730359,0.00173856,0.00378564,0.250095,-1.15503,-0.136344,0.361232,-0.00771666,-0.0621834,-9.98071,0.0474617,-0.0391844,0.187337,-0.00771666,-0.0621834,-0.186968,0,1000,0,0,0,0,
512.77,-139.757,0.436916,-178.991,0.343962,-0.938935,0.0069572,-0.00660939,0.000529458,-0.00388567,-0.00193603,0.0625509,0.127556,10.0364,0.964486,0.640742,-0.377149,43.95,101.01,0.025,0.00385092,-0.00229372,0.00797903,0.00245108,0.00302364,0.250718,-1.15648,-0.130785,0.358441,0.0424779,-0.028536,-10.0372,-0.0121319,-0.0449261,0.244415,0.0424779,-0.028536,-0.243486,0,1000,0,0,0,0,
512.796,-139.757,0.44258,-178.993,0.343966,-0.938933,0.00691855,-0.00664791,-0.000533111,-0.00382916,-0.00080217,0.165297,0.105837,9.99818,0.964456,0.644708,-0.38147,43.95,100.997,0.024999,0.00359007,-0.000989889,0.00789977,0.00293722,0.00290943,0.250478,-1.15911,-0.127748,0.362625,-0.022119,-0.110174,-9.99948,0.0896459,-0.0661943,0.20624,-0.022119,-0.110174,-0.205731,0,1000,0,0,0,0,
512.821,-139.758,0.449564,-178.995,0.343953,-0.938938,0.00688783,-0.00670144,-3.47E-05,-0.002364,-0.000707454,0.134319,0.203813,9.98196,0.964488,0.639382,-0.384185,43.95,100.997,0.025,0.00452384,-0.00151383,0.00881723,0.00385709,0.00390974,0.250351,-1.15577,-0.131816,0.365328,-0.0612359,-0.0142937,-9.98475,0.0574739,0.0319874,0.190026,-0.0612359,-0.0142937,-0.191003,0,1000,0,0,0,0,
512.846,-139.755,0.454545,-178.995,0.343983,-0.938927,0.0068683,-0.00674088,0.000665258,-0.00322967,-0.000429374,0.161565,0.146311,10.0555,0.96699,0.643404,-0.378527,43.95,101.01,0.025001,0.00457209,0.000538221,0.00991481,0.00465665,0.00406738,0.250367,-1.16019,-0.130507,0.359503,-0.0430127,-0.0757647,-10.0574,0.083869,-0.025424,0.263521,-0.0430127,-0.0757647,-0.263692,0,1000,0,0,0,0,
512.872,-139.755,0.457717,-178.995,0.343983,-0.938927,0.00685665,-0.00676609,0.000377344,-0.000234908,6.46E-05,0.141332,0.225203,10.019,0.96574,0.640721,-0.382754,43.935,100.997,0.024999,0.0042392,0.00188388,0.0103827,0.00347752,0.00491848,0.250149,-1.15759,-0.131727,0.363736,-0.0787616,-0.00178399,-10.0223,0.0630937,0.0535131,0.227118,-0.0787616,-0.00178399,-0.228518,0,1000,0,0,0,0,
512.897,-139.756,0.459093,-178.995,0.343971,-0.938931,0.0068548,-0.00677808,-0.000222164,6.46E-05,-0.000552048,0.154844,0.170062,10.059,0.968232,0.644694,-0.388397,43.95,101.01,0.025001,0.00415036,0.00354759,0.0100841,0.00430054,0.00473444,0.250923,-1.16217,-0.130232,0.369262,-0.0525513,-0.0528073,-10.0614,0.0763703,-0.00167402,0.267096,-0.0525513,-0.0528073,-0.267629,0,1000,0,0,0,0,
512.922,-139.754,0.460189,-178.997,0.34399,-0.938924,0.00683879,-0.0067826,0.000825379,0.00036998,0.000495347,0.184024,0.163257,10.0449,0.968271,0.640759,-0.377014,43.95,101.01,0.024999,0.00385882,0.00466778,0.0102083,0.00392401,0.00434012,0.25047,-1.15945,-0.133415,0.357949,-0.0706991,-0.0764105,-10.0474,0.105364,-0.00821695,0.252985,-0.0706991,-0.0764105,-0.25364,0,1000,0,0,0,0,
512.947,-139.756,0.459397,-178.997,0.343972,-0.938931,0.0068423,-0.00677634,0.000510769,0.00185191,0.000378398,0.0842101,0.200704,10.0277,0.964512,0.636756,-0.377066,43.97,101.002,0.025001,0.00486224,0.00591401,0.0114056,0.00359979,0.00436621,0.250893,-1.154,-0.133993,0.358113,-0.0190939,0.0166921,-10.03,0.00568478,0.0292096,0.23576,-0.0190939,0.0166921,-0.236274,0,1000,0,0,0,0,
512.973,-139.754,0.458905,-178.997,0.343986,-0.938925,0.00683812,-0.00677038,-0.000448033,0.00294543,0.00246729,0.204937,0.121437,10.0676,0.964513,0.636756,-0.377067,43.965,100.997,0.024999,0.00470419,0.00577912,0.0113113,0.00374637,0.00386652,0.250604,-1.15399,-0.134029,0.358129,-0.0594925,-0.122096,-10.0695,0.126496,-0.0499413,0.275629,-0.0594925,-0.122096,-0.275717,0,1000,0,0,0,0,
512.998,-139.755,0.456373,-178.997,0.343978,-0.938929,0.00684748,-0.00675019,0.00239037,0.00255396,0.00132594,0.0796105,0.178622,10.0396,0.970765,0.644744,-0.379832,43.95,101.01,0.025,0.00529648,0.00707476,0.0123033,0.00294946,0.00374345,0.250736,-1.16396,-0.131917,0.360745,-0.00157247,0.00243205,-10.0415,0.00160211,0.00720749,0.247622,-0.00157247,0.00243205,-0.247715,0,1000,0,0,0,0,
513.023,-139.761,0.452404,-178.996,0.343929,-0.938946,0.00686595,-0.00671958,0.000918373,0.00414405,0.000381106,0.123893,0.146441,9.99567,0.966975,0.644712,-0.382791,43.965,101.014,0.025,0.00501692,0.0078284,0.0122842,0.00292529,0.00411661,0.250091,-1.1611,-0.129327,0.363793,-0.0157996,-0.0509237,-9.99736,0.0465625,-0.0251022,0.203727,-0.0157996,-0.0509237,-0.203617,0,1000,0,0,0,0,
513.048,-139.763,0.44832,-178.995,0.343911,-0.938953,0.00688724,-0.00668925,0.000246039,0.00310819,0.000800887,0.0472062,0.187154,10.0101,0.967011,0.640749,-0.378473,43.95,101.01,0.025001,0.0053724,0.00796501,0.0116914,0.0021198,0.00442135,0.25007,-1.15848,-0.132343,0.359602,0.0162766,0.0289632,-10.0119,-0.0294258,0.0154245,0.21818,0.0162766,0.0289632,-0.21818,0,1000,0,0,0,0,
513.074,-139.766,0.442764,-178.992,0.343888,-0.938961,0.00692804,-0.00665233,0.00108461,0.0025723,0.0018864,0.0710963,0.198584,10.0321,0.96698,0.646077,-0.375759,43.95,101.01,0.024999,0.00532346,0.00813127,0.012169,0.0021238,0.00530285,0.250313,-1.16184,-0.128186,0.356856,-0.00937167,0.0210548,-10.0343,-0.00458593,0.0263544,0.240161,-0.00937167,0.0210548,-0.240544,0,1000,0,0,0,0,
513.099,-139.769,0.437733,-178.991,0.343866,-0.93897,0.00695347,-0.00661466,0.00033352,0.00196647,0.000908176,0.074414,0.214,10.025,0.963234,0.63804,-0.385614,43.95,100.997,0.025,0.00390692,0.00800676,0.0120779,0.00164712,0.00544026,0.250823,-1.15395,-0.131735,0.36695,-0.0225118,0.0300069,-10.0275,-0.000408243,0.0415583,0.233048,-0.0225118,0.0300069,-0.233733,0,1000,0,0,0,0,
513.124,-139.77,0.432413,-178.99,0.343855,-0.938974,0.00698132,-0.0065753,0.00013962,0.00272093,0.0012027,0.0281642,0.190732,10.0475,0.968227,0.647391,-0.379978,43.95,101.01,0.025,0.00392121,0.00746369,0.0110171,0.00134784,0.00479974,0.250808,-1.16369,-0.127811,0.361186,0.0276578,0.0411274,-10.0492,-0.0457488,0.0180447,0.255511,0.0276578,0.0411274,-0.255437,0,1000,0,0,0,0,
513.15,-139.769,0.427875,-178.989,0.343866,-0.93897,0.00700276,-0.0065411,-0.000331388,0.00255279,0.00104234,0.0569928,0.162615,10.0207,0.968157,0.658031,-0.377372,43.95,101.01,0.025,0.00421537,0.00694713,0.011383,0.000962834,0.00459523,0.250643,-1.17044,-0.11967,0.358459,0.0228463,0.000632599,-10.0221,-0.0161446,-0.0102375,0.228716,0.0228463,0.000632599,-0.228373,0,1000,0,0,0,0,
513.175,-139.773,0.424018,-178.99,0.343837,-0.938981,0.00700783,-0.00650681,0.000233602,0.0023814,0.000107414,-0.0122573,0.155337,10.031,0.965733,0.642051,-0.382782,43.95,101.01,0.025,0.00335266,0.00610054,0.010099,0.000588131,0.00361514,0.250171,-1.15835,-0.130173,0.364243,0.0799843,0.0393805,-10.0318,-0.0847354,-0.0173755,0.239075,0.0799843,0.0393805,-0.238098,0,1000,0,0,0,0,
513.2,-139.776,0.421029,-178.989,0.343808,-0.938991,0.00702225,-0.00648402,0.00106055,0.00215738,0.00164912,0.0491629,0.139925,10.0613,0.967012,0.639399,-0.382682,43.95,100.997,0.025001,0.00498074,0.00550855,0.0117033,0.00057115,0.0035819,0.250736,-1.15761,-0.132936,0.364223,0.0432292,-0.012742,-10.0623,-0.0228043,-0.0328972,0.269344,0.0432292,-0.012742,-0.268547,0,1000,0,0,0,0,
513.225,-139.777,0.419273,-178.988,0.343801,-0.938994,0.00703381,-0.00647187,0.00109301,0.00048101,0.000767269,-0.0157987,0.160797,10.014,0.965734,0.643407,-0.377161,43.95,100.997,0.024999,0.00452656,0.00426542,0.0104974,0.000304371,0.00405466,0.250597,-1.15912,-0.129071,0.358663,0.0784013,0.0452547,-10.0149,-0.0874657,-0.0121558,0.222021,0.0784013,0.0452547,-0.221126,0,1000,0,0,0,0,
513.251,-139.777,0.416936,-178.986,0.343806,-0.938992,0.00705694,-0.00645867,0.00164872,0.000645226,0.00103739,0.0422112,0.157565,10.0304,0.965744,0.640723,-0.382755,43.95,100.997,0.025,0.00520886,0.00429578,0.0107944,0.000642939,0.00426515,0.250613,-1.15749,-0.131071,0.364321,0.0363857,0.00465634,-10.0317,-0.0290564,-0.0157247,0.238457,0.0363857,0.00465634,-0.237924,0,1000,0,0,0,0,
513.276,-139.78,0.414892,-178.984,0.343779,-0.939002,0.00707972,-0.00644775,-0.000247217,0.00134057,0.00045171,0.0299027,0.256674,9.98571,0.964479,0.640704,-0.385625,43.95,100.997,0.025,0.0046861,0.00415417,0.0106338,0.000351728,0.0052663,0.250268,-1.15656,-0.130158,0.367211,-0.018999,0.0881719,-9.98864,-0.0410155,0.0830417,0.193757,-0.018999,0.0881719,-0.194897,0,1000,0,0,0,0,
513.301,-139.78,0.412851,-178.982,0.343781,-0.939001,0.00710423,-0.00643777,-7.02E-05,-0.000440645,-0.000328042,-0.00897984,0.214419,10.0163,0.965742,0.642067,-0.37996,43.95,100.985,0.025001,0.00376516,0.00317433,0.00973828,0.000151359,0.00536736,0.250226,-1.15831,-0.129969,0.361523,0.0384665,0.0802144,-10.0182,-0.0795491,0.0404029,0.224359,0.0384665,0.0802144,-0.224463,0,1000,0,0,0,0,
513.327,-139.78,0.412407,-178.981,0.343782,-0.939001,0.00711112,-0.00643617,-0.000262473,-0.00115484,-0.000664542,0.0539972,0.206287,10.0278,0.961976,0.638042,-0.384248,43.965,101.002,0.025,0.00294233,0.00216343,0.0105225,2.98E-05,0.00543452,0.250486,-1.15291,-0.130567,0.365909,-0.00415772,0.033097,-10.03,-0.0164962,0.0321547,0.235827,-0.00415772,0.033097,-0.236237,0,1000,0,0,0,0,
513.352,-139.78,0.412294,-178.98,0.343777,-0.939002,0.00711768,-0.00643748,-0.000423154,-0.00117635,-0.000254592,-0.00835759,0.200978,10.0176,0.969516,0.642039,-0.389713,43.95,101.01,0.025,0.003071,0.00191726,0.00876239,0.000372681,0.00510606,0.25084,-1.16135,-0.132319,0.371241,0.0467779,0.0692838,-10.0192,-0.0788318,0.0267165,0.225619,0.0467779,0.0692838,-0.225486,0,1000,0,0,0,0,
513.377,-139.779,0.415066,-178.982,0.343783,-0.939,0.00709379,-0.00645455,-0.00127937,-0.00290946,-0.00118532,0.0839491,0.132159,10.0253,0.965732,0.643394,-0.379986,43.95,100.997,0.024999,0.00172791,-0.000201023,0.00857567,0.000967602,0.00424934,0.250945,-1.15917,-0.128964,0.361494,0.0210096,-0.0423676,-10.0264,0.0130012,-0.041779,0.233357,0.0210096,-0.0423676,-0.232666,0,1000,0,0,0,0,
513.402,-139.778,0.418692,-178.984,0.343796,-0.938995,0.00707192,-0.00648038,0.0005691,-0.00225587,-0.000649942,0.0244999,0.177076,10.0112,0.969549,0.639441,-0.376946,43.96,101.01,0.025001,0.003199,-0.000414935,0.00782956,0.00121452,0.00376117,0.250629,-1.15949,-0.13453,0.35845,0.0374989,0.0310282,-10.0126,-0.0470678,0.00336531,0.219226,0.0374989,0.0310282,-0.218902,0,1000,0,0,0,0,
513.428,-139.773,0.421562,-178.985,0.343832,-0.938982,0.00705596,-0.00650156,0.000436974,-0.00133787,-0.00105768,0.115494,0.147241,10.0254,0.965785,0.635417,-0.381235,43.95,100.997,0.024999,0.00350212,0.000474118,0.00961378,0.00210008,0.003832,0.250166,-1.15409,-0.135237,0.362798,-0.0121865,-0.0501953,-10.027,0.043436,-0.0263211,0.233416,-0.0121865,-0.0501953,-0.233226,0,1000,0,0,0,0,
513.453,-139.77,0.425807,-178.985,0.343862,-0.938971,0.00703716,-0.00653443,0.000807272,-0.00268559,-0.000918583,0.0423703,0.179082,10.0059,0.965753,0.640756,-0.375693,43.95,100.997,0.025001,0.00366538,-0.000632514,0.00833472,0.00151746,0.00424978,0.250267,-1.15743,-0.131284,0.3571,0.0232372,0.0220833,-10.0075,-0.0304136,0.00564161,0.213959,0.0232372,0.0220833,-0.213794,0,1000,0,0,0,0,
513.478,-139.767,0.42726,-178.984,0.343881,-0.938964,0.00704087,-0.00654948,-0.00142703,-0.000494439,-0.00207677,0.0710894,0.232009,9.98485,0.964433,0.64599,-0.391383,43.955,101.014,0.024999,0.00394459,0.00110794,0.00914222,0.00184114,0.00486102,0.250276,-1.16007,-0.126347,0.372668,-0.032917,0.0441536,-9.98765,-0.00194271,0.058398,0.192918,-0.032917,0.0441536,-0.193903,0,1000,0,0,0,0,
513.504,-139.767,0.429339,-178.982,0.343883,-0.938963,0.00704925,-0.0065719,-0.000319956,-0.00242259,-0.00118532,0.0663085,0.233231,10.0087,0.965749,0.640743,-0.378518,43.95,100.997,0.025001,0.00316591,3.22E-05,0.00892408,0.00122352,0.00605887,0.25073,-1.15749,-0.13132,0.359833,-0.0291688,0.0479627,-10.0115,-0.00707903,0.0593146,0.216759,-0.0291688,0.0479627,-0.217719,0,1000,0,0,0,0,
513.529,-139.766,0.433056,-178.982,0.343893,-0.938959,0.0070416,-0.00660374,0.00012971,-0.00293399,-0.000415078,0.0745448,0.226567,10.005,0.968304,0.636777,-0.376935,43.955,100.997,0.025,0.00259516,-0.00130674,0.00909535,0.00186861,0.00533387,0.250296,-1.15686,-0.136051,0.358233,-0.0306735,0.0379487,-10.0077,0.000521899,0.0525761,0.213041,-0.0306735,0.0379487,-0.21394,0,1000,0,0,0,0,
513.554,-139.763,0.437993,-178.985,0.343916,-0.938951,0.00700427,-0.00663619,-0.00324205,-0.00311112,-0.00193723,0.15146,0.186942,10.0297,0.966925,0.654035,-0.378749,43.95,100.997,0.025,0.000534186,-0.00106871,0.00754017,0.00283594,0.00525774,0.250625,-1.16699,-0.122061,0.359699,-0.0630232,-0.0412742,-10.0323,0.076593,0.0134171,0.237764,-0.0630232,-0.0412742,-0.238543,0,1000,0,0,0,0,
513.579,-139.76,0.441693,-178.987,0.343937,-0.938943,0.00697406,-0.00665972,-0.00143203,-0.00134977,-0.00152236,0.0435048,0.157067,10.0163,0.964514,0.63674,-0.381307,43.95,100.997,0.024999,0.00145277,6.62E-05,0.00819021,0.00229673,0.00439802,0.250384,-1.15403,-0.133762,0.362545,0.0386776,0.0064958,-10.0176,-0.0319944,-0.0160625,0.224382,0.0386776,0.0064958,-0.223809,0,1000,0,0,0,0,
513.605,-139.756,0.446765,-178.991,0.343971,-0.938931,0.00692329,-0.0066886,-0.00165353,-0.00193624,-0.00213947,0.174349,0.119529,10.0685,0.964487,0.640726,-0.381389,43.95,100.997,0.025001,0.00128146,-0.000658386,0.00754911,0.00322007,0.00335228,0.250874,-1.15658,-0.130829,0.36252,-0.035855,-0.105973,-10.0701,0.0979832,-0.0528643,0.276605,-0.035855,-0.105973,-0.276387,0,1000,0,0,0,0,
513.63,-139.752,0.449754,-178.994,0.344008,-0.938917,0.00688959,-0.0067044,-0.000898788,-0.00156634,-0.000451652,0.122973,0.149255,10.0125,0.967018,0.640759,-0.377063,43.95,100.985,0.024999,0.00221139,0.00171313,0.00794838,0.00337336,0.00365419,0.250585,-1.15845,-0.132595,0.358158,-0.0167438,-0.0488878,-10.0142,0.0460957,-0.0226277,0.220574,-0.0167438,-0.0488878,-0.220498,0,1000,0,0,0,0,
513.655,-139.753,0.452323,-178.997,0.343995,-0.938922,0.00685652,-0.00671603,-0.000651248,-0.00156429,0.00104873,0.144472,0.119227,9.99501,0.968283,0.640772,-0.375607,43.95,100.997,0.025001,0.00239548,0.00220661,0.00979555,0.00399325,0.0031097,0.250285,-1.15941,-0.133407,0.356683,-0.0140712,-0.0848465,-9.9964,0.0671556,-0.0521244,0.203072,-0.0140712,-0.0848465,-0.202653,0,1000,0,0,0,0,
513.68,-139.752,0.45365,-178.999,0.344001,-0.93892,0.0068438,-0.00672376,0.000286013,-1.08E-05,-0.00126561,0.128745,0.184601,10.0042,0.963224,0.640713,-0.382847,43.95,100.997,0.024999,0.00400084,0.00339905,0.00995075,0.00320261,0.00410293,0.250405,-1.15563,-0.130148,0.363952,-0.0440742,-0.0245757,-10.0066,0.0512023,0.0134309,0.212298,-0.0440742,-0.0245757,-0.212899,0,1000,0,0,0,0,
513.706,-139.753,0.454379,-179,0.343998,-0.938922,0.00683177,-0.0067261,1.92E-05,0.000549179,-0.000120207,0.132307,0.189813,10.0215,0.966945,0.651374,-0.380108,43.95,101.01,0.025,0.002744,0.00311103,0.00995977,0.00323134,0.00445316,0.250655,-1.16531,-0.124439,0.361,-0.0498992,-0.0227979,-10.024,0.0546399,0.0188479,0.229517,-0.0498992,-0.0227979,-0.230237,0,1000,0,0,0,0,
513.731,-139.755,0.454423,-179.001,0.34398,-0.938928,0.00681962,-0.00672188,4.36E-05,0.00146139,0.00026596,0.139482,0.175133,10.0299,0.967005,0.642068,-0.381328,43.955,100.997,0.025,0.00330034,0.00468986,0.0105922,0.00332688,0.00427031,0.25075,-1.15936,-0.131535,0.362397,-0.0459103,-0.0385022,-10.0323,0.0618074,0.00442167,0.238,-0.0459103,-0.0385022,-0.238523,0,1000,0,0,0,0,
513.756,-139.755,0.453476,-179.001,0.343977,-0.938929,0.00682374,-0.00671455,-1.01E-05,0.000868124,-0.000373609,0.0308517,0.191143,10.0202,0.967033,0.638089,-0.379834,43.95,100.997,0.025,0.00383519,0.00440762,0.0104326,0.00223071,0.00450021,0.250628,-1.15679,-0.134589,0.360987,0.026386,0.0438492,-10.0219,-0.0466615,0.0204056,0.228257,0.026386,0.0438492,-0.228202,0,1000,0,0,0,0,
513.782,-139.757,0.451726,-179.002,0.343965,-0.938934,0.00682061,-0.00669703,-0.000157363,0.00130762,-0.000561679,0.154203,0.12776,9.98756,0.966932,0.652695,-0.381547,43.955,101.002,0.025,0.00367582,0.00576686,0.0103904,0.00277213,0.00391642,0.250602,-1.16616,-0.12333,0.362487,-0.0277448,-0.0840096,-9.98917,0.0769892,-0.0428012,0.195601,-0.0277448,-0.0840096,-0.195427,0,1000,0,0,0,0,
513.807,-139.757,0.450339,-179.004,0.343962,-0.938935,0.00681247,-0.00668112,0.000428549,0.00107459,0.00026868,0.0508307,0.16073,10.0317,0.965724,0.644724,-0.380014,43.96,100.997,0.025001,0.00351112,0.00542906,0.0100275,0.001937,0.00371492,0.250372,-1.16006,-0.128639,0.361144,0.0302708,0.00761847,-10.033,-0.0261463,-0.00957367,0.239697,0.0302708,0.00761847,-0.239282,0,1000,0,0,0,0,
513.832,-139.756,0.446997,-179.004,0.343969,-0.938933,0.00681669,-0.00665168,0.00127653,0.00288934,-0.000908811,0.067251,0.119239,10.0074,0.968274,0.640739,-0.382669,43.945,100.985,0.024999,0.00433437,0.00630426,0.0105872,0.00147849,0.00323141,0.250476,-1.15945,-0.133314,0.363912,0.0435912,-0.0347427,-10.0082,-0.00915484,-0.0509445,0.215457,0.0435912,-0.0347427,-0.214461,0,1000,0,0,0,0,
513.857,-139.76,0.446364,-179.005,0.343943,-0.938942,0.00680987,-0.00664303,0.00146938,0.00188406,0.0016466,0.0737946,0.178954,10.0083,0.969557,0.638096,-0.381158,43.97,101.002,0.025,0.00448356,0.00436135,0.0116719,0.00144208,0.00352118,0.25066,-1.1587,-0.13611,0.36246,-0.000162259,0.00667583,-10.0101,-0.00250291,0.00895634,0.216279,-0.000162259,0.00667583,-0.216375,0,1000,0,0,0,0,
513.883,-139.76,0.444174,-179.004,0.343942,-0.938942,0.00682777,-0.00662924,0.00084753,0.00217708,0.000792641,0.0607431,0.183307,10.0299,0.969536,0.64075,-0.381211,43.955,101.014,0.025,0.0051254,0.00504318,0.0106808,0.00193999,0.00408532,0.250702,-1.16039,-0.134053,0.362488,0.00722446,0.0178191,-10.0318,-0.0151802,0.0130731,0.23794,0.00722446,0.0178191,-0.238007,0,1000,0,0,0,0,
513.908,-139.763,0.442649,-179.002,0.343913,-0.938953,0.00684875,-0.00662246,0.00146357,0.000335734,0.000812294,0.102535,0.177498,9.99628,0.965795,0.63409,-0.381208,43.95,100.997,0.025001,0.00537093,0.00461711,0.0118575,0.00164536,0.00468775,0.250619,-1.15325,-0.136632,0.362634,-0.0214823,-0.0137678,-9.99835,0.0268725,0.00692587,0.204313,-0.0214823,-0.0137678,-0.204604,0,1000,0,0,0,0,
513.933,-139.765,0.439701,-178.998,0.343903,-0.938957,0.006893,-0.00661117,0.0013926,0.000781836,-0.000137129,0.0139243,0.21659,10.0329,0.964509,0.638088,-0.377097,43.95,101.01,0.025,0.00569427,0.00471323,0.0103515,0.00137405,0.00536938,0.2507,-1.15478,-0.132725,0.358465,0.0216393,0.0720946,-10.035,-0.0612345,0.0452807,0.240933,0.0216393,0.0720946,-0.241211,0,1000,0,0,0,0,
513.959,-139.767,0.437016,-178.995,0.343885,-0.938963,0.00692023,-0.00659601,-0.000687772,0.00133101,-0.000524757,0.0753411,0.209749,10.0302,0.961929,0.646045,-0.377349,43.95,100.997,0.025,0.00388939,0.00482906,0.0107663,0.0014623,0.00560326,0.250461,-1.15796,-0.124917,0.358617,-0.0209687,0.0266121,-10.0326,0.000641387,0.0380433,0.238268,-0.0209687,0.0266121,-0.238896,0,1000,0,0,0,0,
513.984,-139.766,0.434759,-178.994,0.343888,-0.938962,0.00693931,-0.00658205,-0.00119459,0.000484751,0.000764032,-0.0221568,0.221438,10.048,0.969514,0.64475,-0.378469,43.965,101.01,0.024999,0.00372472,0.00420441,0.0100669,0.000648277,0.0052945,0.250596,-1.16292,-0.130786,0.359722,0.0460859,0.0979001,-10.0499,-0.0964707,0.0494749,0.256041,0.0460859,0.0979001,-0.256131,0,1000,0,0,0,0,
514.009,-139.767,0.433214,-178.992,0.343881,-0.938965,0.00695595,-0.00657372,0.000431196,0.000701426,-9.97E-05,0.0600417,0.18022,10.019,0.96575,0.640732,-0.381345,43.95,100.997,0.025001,0.00370081,0.00330158,0.00994988,0.000977818,0.00506148,0.250544,-1.15751,-0.131364,0.362706,0.00941256,0.0132213,-10.0208,-0.0140083,0.00800771,0.227045,0.00941256,0.0132213,-0.227038,0,1000,0,0,0,0,
514.035,-139.766,0.432794,-178.992,0.343888,-0.938962,0.00696183,-0.00657204,0.000951146,-8.14E-05,0.000606215,0.0126127,0.186633,10.0347,0.966991,0.644743,-0.377145,43.95,101.023,0.024999,0.00382231,0.00296017,0.0103103,0.000757369,0.00456237,0.250488,-1.16097,-0.129153,0.358428,0.041756,0.0484928,-10.0363,-0.0613654,0.0143233,0.242761,0.041756,0.0484928,-0.242505,0,1000,0,0,0,0,
514.06,-139.765,0.433418,-178.993,0.3439,-0.938957,0.00695111,-0.00657404,1.44E-05,-0.00177439,-0.00020098,0.0650468,0.129995,10.0171,0.968244,0.646078,-0.377128,43.97,101.014,0.025001,0.00271409,0.00184884,0.00890141,0.0014893,0.0038735,0.250487,-1.16278,-0.128982,0.35838,0.0379612,-0.0282456,-10.018,-0.009038,-0.0421321,0.225151,0.0379612,-0.0282456,-0.224301,0,1000,0,0,0,0,
514.085,-139.767,0.434493,-178.993,0.343883,-0.938964,0.0069509,-0.00658377,0.000638599,-0.00146058,0.000312101,0.0735132,0.188378,10.012,0.968266,0.642073,-0.381283,43.97,101.014,0.024999,0.00425042,0.00228731,0.0106472,0.00162406,0.00464967,0.250177,-1.1603,-0.131977,0.362582,-0.00610566,0.0109723,-10.014,-0.000755425,0.0161909,0.220015,-0.00610566,0.0109723,-0.220254,0,1000,0,0,0,0,
514.11,-139.763,0.434257,-178.991,0.343919,-0.93895,0.00696374,-0.00658665,0.000462027,-0.000270237,-0.00112245,0.0355227,0.184717,10.0091,0.968235,0.647401,-0.378569,43.96,101.014,0.025,0.0040671,0.00247064,0.00922748,0.00163773,0.00474918,0.250434,-1.16366,-0.127996,0.359761,0.0253485,0.032512,-10.0108,-0.0387054,0.0122708,0.217178,0.0253485,0.032512,-0.217061,0,1000,0,0,0,0,
514.136,-139.764,0.436732,-178.99,0.34391,-0.938953,0.0069678,-0.00661105,-5.70E-05,-0.00215443,-7.31E-05,0.0259802,0.207754,10.0327,0.96448,0.643411,-0.375796,43.95,101.023,0.025001,0.00239874,0.000961567,0.01031,0.00166364,0.00540451,0.250455,-1.15819,-0.128621,0.35703,0.0186502,0.0561531,-10.0347,-0.0486711,0.0350696,0.240724,0.0186502,0.0561531,-0.240927,0,1000,0,0,0,0,
514.161,-139.763,0.43744,-178.991,0.343914,-0.938952,0.00695235,-0.00661201,-0.00220288,-0.000900521,-0.000930266,0.142763,0.135258,10.0398,0.967014,0.640745,-0.379888,43.95,101.01,0.024999,0.00182498,0.00238407,0.0092628,0.00221998,0.00446877,0.25051,-1.15847,-0.132278,0.361156,-0.023651,-0.0743831,-10.0414,0.067991,-0.0371485,0.247811,-0.023651,-0.0743831,-0.24763,0,1000,0,0,0,0,
514.186,-139.763,0.439603,-178.994,0.343916,-0.938952,0.00692588,-0.00662243,-0.00062654,-0.000161334,-0.000469706,0.0600608,0.19404,10.0039,0.965757,0.639397,-0.38273,43.95,100.997,0.025001,0.002518,0.00236358,0.00981615,0.00218472,0.00421389,0.250041,-1.15669,-0.132497,0.364021,0.000918671,0.0247821,-10.0059,-0.0150812,0.0220497,0.211916,0.000918671,0.0247821,-0.212149,0,1000,0,0,0,0,
514.212,-139.76,0.441006,-178.996,0.343943,-0.938942,0.00690331,-0.00662747,5.49E-05,-0.000763068,0.000867844,0.105544,0.120067,10.0285,0.965803,0.632755,-0.382594,43.95,100.997,0.024999,0.00280321,0.00247215,0.0101737,0.00240241,0.00373427,0.250192,-1.15242,-0.137681,0.364002,0.0143308,-0.0608165,-10.0296,0.0301623,-0.0515442,0.23655,0.0143308,-0.0608165,-0.235836,0,1000,0,0,0,0,
514.237,-139.758,0.443786,-178.999,0.343954,-0.938938,0.00686811,-0.00664052,-0.000715157,-0.000465474,0.000261304,0.100214,0.131557,10.0416,0.968184,0.655385,-0.375908,43.95,100.997,0.025001,0.00312921,0.00212113,0.00967306,0.00241389,0.00317161,0.250627,-1.16874,-0.122056,0.356894,0.0112084,-0.0479613,-10.0429,0.0243571,-0.0394958,0.249693,0.0112084,-0.0479613,-0.249146,0,1000,0,0,0,0,
514.263,-139.755,0.444917,-179,0.34398,-0.938928,0.00686046,-0.0066485,0.000650109,0.000958777,-0.000407265,0.0894935,0.149771,10.025,0.968241,0.644704,-0.386988,43.95,100.997,0.024999,0.0045318,0.00296208,0.0101561,0.00277193,0.00361712,0.250834,-1.16207,-0.130227,0.368144,0.00743873,-0.0267999,-10.0265,0.0134431,-0.0211971,0.233028,0.00743873,-0.0267999,-0.232719,0,1000,0,0,0,0,
514.288,-139.756,0.446257,-179.002,0.343976,-0.93893,0.00683466,-0.00665145,-3.10E-05,-0.000142878,7.83E-05,0.119521,0.114939,9.99745,0.965689,0.650038,-0.380124,43.96,101.014,0.025001,0.00351895,0.00330263,0.00968547,0.00229841,0.0032969,0.250763,-1.16345,-0.124571,0.361216,0.00642045,-0.0720504,-9.99857,0.0432414,-0.0555743,0.205491,0.00642045,-0.0720504,-0.204823,0,1000,0,0,0,0,
514.313,-139.756,0.446704,-179.002,0.343971,-0.938932,0.00683718,-0.00665648,0.000556311,0.00118491,-0.000738514,0.0798821,0.216883,10.0271,0.965764,0.639413,-0.379907,43.965,101.002,0.025,0.00495822,0.00351462,0.00976127,0.00247572,0.00425823,0.250299,-1.15664,-0.13272,0.361171,-0.0285435,0.0311124,-10.0296,0.00352635,0.0462905,0.23509,-0.0285435,0.0311124,-0.235881,0,1000,0,0,0,0,
514.339,-139.758,0.446391,-179.001,0.343957,-0.938937,0.0068475,-0.00665721,-0.000214835,0.000780515,0.00193113,0.147064,0.172509,10.0001,0.967013,0.640728,-0.384127,43.95,100.997,0.024999,0.00435674,0.00418329,0.0114943,0.00266806,0.00485883,0.250332,-1.15852,-0.132446,0.36535,-0.0515429,-0.0461203,-10.0024,0.070762,0.00172281,0.208126,-0.0515429,-0.0461203,-0.20867,0,1000,0,0,0,0,
514.364,-139.755,0.445921,-179,0.343978,-0.938929,0.0068554,-0.00665595,0.000366423,0.000586337,0.000881834,0.0596536,0.215232,9.98957,0.968303,0.636745,-0.385414,43.95,100.997,0.025,0.00454767,0.00443686,0.00896402,0.00220574,0.00463198,0.250749,-1.15695,-0.136356,0.366695,-0.0125674,0.0428822,-9.99197,-0.0165683,0.0443065,0.197613,-0.0125674,0.0428822,-0.198221,0,1000,0,0,0,0,
514.389,-139.756,0.444243,-178.998,0.343975,-0.93893,0.00687757,-0.00664845,-0.000191114,0.00146781,0.00121191,0.124528,0.17308,10.0609,0.96446,0.646056,-0.378676,43.96,101.014,0.025001,0.00527851,0.00471668,0.0114185,0.00232928,0.00455878,0.250968,-1.15992,-0.126797,0.35983,-0.033621,-0.0322632,-10.063,0.0485928,0.00179772,0.268906,-0.033621,-0.0322632,-0.269265,0,1000,0,0,0,0,
514.415,-139.757,0.444828,-178.999,0.343965,-0.938934,0.00686437,-0.00664895,0.000536805,0.00103989,0.000881976,0.0761588,0.152693,10.0109,0.966952,0.651395,-0.375872,43.955,100.997,0.024999,0.0038183,0.00373638,0.0113366,0.00200357,0.00384964,0.250776,-1.16522,-0.124339,0.35692,0.015523,-0.0159061,-10.0123,0.000123752,-0.0183492,0.218913,0.015523,-0.0159061,-0.218554,0,1000,0,0,0,0,
514.44,-139.76,0.443378,-178.998,0.34394,-0.938943,0.00687688,-0.0066398,0.00169811,0.000409099,-0.000361354,0.0635995,0.142617,10.0048,0.968289,0.63942,-0.381231,43.97,101.014,0.025001,0.00583083,0.00470848,0.0103611,0.00198628,0.00367607,0.250515,-1.1586,-0.134226,0.362491,0.0314281,-0.0157282,-10.006,-0.0121876,-0.0285917,0.212851,0.0314281,-0.0157282,-0.212218,0,1000,0,0,0,0,
514.466,-139.764,0.441451,-178.998,0.343911,-0.938954,0.00688406,-0.00662423,0.000862515,0.00124618,-0.000138061,0.07676,0.151212,10.0132,0.969509,0.646081,-0.378498,43.95,100.997,0.025,0.00469701,0.00548242,0.0113938,0.00160684,0.00417766,0.25037,-1.16379,-0.129871,0.359663,0.0157347,-0.0179766,-10.0146,0.00130219,-0.0200209,0.221281,0.0157347,-0.0179766,-0.220901,0,1000,0,0,0,0,
514.491,-139.762,0.439069,-178.995,0.343923,-0.938949,0.00691664,-0.00661415,0.00231247,0.00056163,-1.62E-05,0.0125324,0.219977,10.0457,0.967048,0.63677,-0.378397,43.96,101.01,0.025,0.0064535,0.00443277,0.0102178,0.0012802,0.00436531,0.250382,-1.15589,-0.135394,0.359749,0.0209497,0.0750432,-10.0479,-0.0625182,0.0482116,0.253792,0.0209497,0.0750432,-0.254112,0,1000,0,0,0,0,
514.517,-139.762,0.437338,-178.993,0.343922,-0.938949,0.00694147,-0.00660715,0.000392244,0.000322815,0.000334105,0.0956625,0.222941,10.0225,0.967012,0.642083,-0.378505,43.95,100.997,0.024999,0.00416966,0.00374314,0.0110008,0.00131845,0.00553217,0.250326,-1.1593,-0.131294,0.359767,-0.0447814,0.0232891,-10.0253,0.0209078,0.0507661,0.230539,-0.0447814,0.0232891,-0.231548,0,1000,0,0,0,0,
514.542,-139.763,0.436373,-178.991,0.343919,-0.93895,0.00696138,-0.00660545,0.000658665,0.000535191,0.00114307,0.0201286,0.2336,10.0325,0.963234,0.640741,-0.377198,43.95,100.997,0.025001,0.00443138,0.00361545,0.0105551,0.00158531,0.00534201,0.25052,-1.15553,-0.129868,0.358505,0.00627281,0.0797447,-10.035,-0.0544614,0.0610713,0.240608,0.00627281,0.0797447,-0.241224,0,1000,0,0,0,0,
514.567,-139.763,0.434938,-178.988,0.343917,-0.938951,0.00698486,-0.00660069,0.000624184,0.00130914,-0.000782936,0.0905224,0.200439,10.0016,0.964432,0.648685,-0.38438,43.95,101.01,0.025,0.00362611,0.0032693,0.00985285,0.00157143,0.00568788,0.250289,-1.1617,-0.124493,0.365534,-0.0265085,0.00875187,-10.0039,0.0161778,0.0275098,0.209617,-0.0265085,0.00875187,-0.210187,0,1000,0,0,0,0,
514.593,-139.762,0.433544,-178.988,0.343926,-0.938948,0.00699213,-0.00659049,-0.000529539,-0.000453797,-0.000121064,0.0558483,0.202708,9.99152,0.968261,0.64476,-0.375691,43.96,101.014,0.025,0.00286248,0.00424935,0.0103794,0.00160406,0.00533977,0.250145,-1.16194,-0.13005,0.356906,-0.00182113,0.0327593,-9.99368,-0.0182579,0.0297138,0.199579,-0.00182113,0.0327593,-0.199929,0,1000,0,0,0,0,
514.618,-139.765,0.432214,-178.988,0.343903,-0.938956,0.00699444,-0.00657874,-0.000398985,0.000313702,0.000610371,0.0944513,0.174976,10.0169,0.968256,0.643396,-0.382724,43.95,101.01,0.024999,0.00302193,0.00405096,0.00950926,0.00204258,0.00446735,0.250199,-1.16117,-0.130966,0.363987,-0.0131475,-0.0136826,-10.0188,0.0205722,0.00202007,0.224946,-0.0131475,-0.0136826,-0.225096,0,1000,0,0,0,0,
514.643,-139.765,0.431473,-178.989,0.343896,-0.938959,0.00698578,-0.00656862,-0.000942179,-0.000768324,-0.00088753,0.0524305,0.177675,9.98739,0.964465,0.643364,-0.385682,43.95,101.01,0.025,0.00197681,0.00341982,0.0106369,0.000980537,0.00468062,0.250567,-1.1583,-0.128505,0.367001,0.0164327,0.0158669,-9.98909,-0.0213219,0.00494663,0.195449,0.0164327,0.0158669,-0.19534,0,1000,0,0,0,0,
514.669,-139.764,0.429905,-178.99,0.34391,-0.938954,0.00698742,-0.00655478,-0.000468347,-9.17E-05,0.000370719,0.0186523,0.186034,10.0235,0.963211,0.64339,-0.378664,43.95,101.01,0.025,0.00315132,0.00385094,0.00963017,0.00149401,0.0042117,0.250797,-1.15723,-0.127764,0.360024,0.0371885,0.0436267,-10.0251,-0.054832,0.0133675,0.231582,0.0371885,0.0436267,-0.231363,0,1000,0,0,0,0,
514.694,-139.763,0.43033,-178.991,0.343915,-0.938952,0.00697923,-0.00655578,-0.00101115,-0.00206405,0.00049484,0.0608266,0.170294,10.0494,0.965743,0.642067,-0.37996,43.95,100.997,0.025,0.00285931,0.00166889,0.00945183,0.000759903,0.00419949,0.25097,-1.15832,-0.130416,0.361327,0.0155618,0.00430874,-10.051,-0.0127303,-0.00222838,0.257427,0.0155618,0.00430874,-0.257245,0,1000,0,0,0,0,
514.719,-139.761,0.429811,-178.99,0.343933,-0.938945,0.0069834,-0.00655267,-0.0013491,-0.00189614,-0.00137593,-0.0212966,0.216494,10.0245,0.966996,0.642046,-0.385564,43.955,100.997,0.025,0.00242384,0.0016129,0.00947806,0.000260854,0.00479944,0.250876,-1.15936,-0.131234,0.366926,0.0479574,0.0927333,-10.0263,-0.0947648,0.0439143,0.232574,0.0479574,0.0927333,-0.232594,0,1000,0,0,0,0,
514.745,-139.76,0.430415,-178.991,0.343944,-0.938941,0.00697447,-0.00655512,-2.44E-05,-0.0016663,-0.000308231,0.0968608,0.157682,10.055,0.96823,0.648743,-0.375771,43.97,101.002,0.025001,0.00245399,0.00126035,0.00859496,0.000945697,0.00431858,0.250616,-1.16445,-0.127039,0.357007,-0.00375144,-0.0285629,-10.0566,0.0232894,-0.0147511,0.263017,-0.00375144,-0.0285629,-0.262884,0,1000,0,0,0,0,
514.77,-139.757,0.432574,-178.993,0.343961,-0.938935,0.00695595,-0.00656858,-0.00132598,-0.00213907,-0.00201185,0.0164841,0.19228,10.0415,0.968277,0.640752,-0.379844,43.95,100.997,0.024999,0.00205194,0.000505713,0.00765464,0.00115909,0.00447028,0.250444,-1.1594,-0.133192,0.361199,0.0351498,0.0503242,-10.0432,-0.0574564,0.020096,0.249537,0.0351498,0.0503242,-0.249411,0,1000,0,0,0,0,
514.795,-139.756,0.434018,-178.994,0.343971,-0.938931,0.00694167,-0.00657686,-0.00153505,-0.00110103,-0.00057287,0.0985544,0.142295,10.0236,0.966962,0.647367,-0.384262,43.96,100.997,0.025,0.00246582,0.0011902,0.00873183,0.00184318,0.00415759,0.250862,-1.16274,-0.127293,0.365499,0.00453919,-0.0403696,-10.025,0.0243671,-0.0296829,0.231679,0.00453919,-0.0403696,-0.2313,0,1000,0,0,0,0,
514.821,-139.756,0.437925,-178.996,0.343972,-0.938931,0.00691145,-0.0066021,0.00192618,-0.00236025,-0.00043413,0.0767158,0.163829,10.0431,0.967012,0.640738,-0.3813,43.95,100.997,0.025,0.00350275,0.00090831,0.00882129,0.00240241,0.00375043,0.250626,-1.15846,-0.132438,0.362614,0.00790142,-0.00924667,-10.0447,0.0018607,-0.00776379,0.251128,0.00790142,-0.00924667,-0.25096,0,1000,0,0,0,0,
514.846,-139.757,0.440686,-178.998,0.343963,-0.938935,0.00688481,-0.00661792,6.98E-05,-0.000795379,0.000967718,0.0808406,0.130244,10.0287,0.964506,0.638069,-0.381335,43.95,101.01,0.025001,0.00324375,0.00137228,0.00959097,0.00272638,0.00339382,0.250842,-1.15483,-0.132856,0.362693,0.0263114,-0.0368128,-10.0298,0.00551356,-0.040965,0.236751,0.0263114,-0.0368128,-0.236034,0,1000,0,0,0,0,
514.872,-139.753,0.444111,-179.002,0.343999,-0.938922,0.00684712,-0.0066363,-0.00133205,-0.00159949,-8.92E-05,0.113987,0.148456,10.0698,0.964433,0.650041,-0.378758,43.965,100.997,0.024999,0.00293081,0.00171962,0.0102638,0.00259262,0.00346863,0.250533,-1.16245,-0.123814,0.359888,-0.00995833,-0.0438362,-10.0715,0.0380744,-0.0221864,0.277866,-0.00995833,-0.0438362,-0.277724,0,1000,0,0,0,0,
514.897,-139.752,0.445196,-179.002,0.344002,-0.938921,0.00683879,-0.00664335,0.00111617,0.000175982,-0.000992936,0.0391324,0.15089,10.056,0.96447,0.644729,-0.37865,43.96,100.997,0.025001,0.0045373,0.00244228,0.00920166,0.00190589,0.00339687,0.250645,-1.15905,-0.127907,0.35986,0.0454392,0.00670355,-10.0571,-0.0369655,-0.0196464,0.264042,0.0454392,0.00670355,-0.263365,0,1000,0,0,0,0,
514.923,-139.757,0.446263,-179.002,0.343966,-0.938934,0.00683661,-0.00665212,0.000779845,-0.00137197,-0.000594946,0.0787749,0.163476,9.99747,0.968251,0.644727,-0.382753,43.955,100.997,0.025,0.00415291,0.002067,0.0108795,0.00169194,0.00431011,0.250648,-1.16202,-0.130232,0.363915,0.00619972,-0.00871077,-9.99911,0.00249464,-0.00707642,0.205506,0.00619972,-0.00871077,-0.205365,0,1000,0,0,0,0,
514.948,-139.758,0.446527,-179,0.343957,-0.938937,0.00685196,-0.00666011,-4.66E-05,-0.00170075,-0.000384631,0.00699339,0.175214,10.0373,0.967039,0.636737,-0.385458,43.95,101.01,0.025,0.00441252,0.00163276,0.00849693,0.00104691,0.00474023,0.251118,-1.15599,-0.135495,0.366741,0.0543525,0.0460578,-10.0386,-0.0693322,0.00432641,0.24537,0.0543525,0.0460578,-0.244861,0,1000,0,0,0,0,
514.973,-139.758,0.447618,-178.999,0.343957,-0.938937,0.00685522,-0.00667145,0.000803974,-0.000770224,-0.000419518,0.153558,0.16553,10.0371,0.967,0.6434,-0.381358,43.95,100.997,0.024999,0.00446456,0.0017068,0.00945244,0.002009,0.00440709,0.250579,-1.1602,-0.130419,0.362498,-0.0510329,-0.0559971,-10.0394,0.0770464,-0.00549486,0.24518,-0.0510329,-0.0559971,-0.245641,0,1000,0,0,0,0,
514.999,-139.758,0.450635,-178.999,0.343952,-0.938938,0.00684822,-0.00669687,0.000107987,-0.00207772,-1.75E-05,0.0598036,0.192958,10.0122,0.967041,0.6381,-0.378424,43.96,101.01,0.025001,0.00391161,0.00117475,0.00870795,0.00212634,0.00474303,0.250955,-1.15678,-0.134515,0.359604,0.00281659,0.0260188,-10.0142,-0.017224,0.0218916,0.220238,0.00281659,0.0260188,-0.220445,0,1000,0,0,0,0,
515.024,-139.76,0.4533,-179,0.343937,-0.938944,0.00683036,-0.00671495,-0.000385754,-0.00103016,-0.000611771,0.148573,0.137337,10.0282,0.967016,0.640731,-0.384129,43.95,101.01,0.025,0.00369274,0.00159412,0.00849739,0.00308332,0.00381678,0.250574,-1.15857,-0.132424,0.36523,-0.0285279,-0.0734486,-10.0299,0.0710898,-0.0335219,0.236236,-0.0285279,-0.0734486,-0.23617,0,1000,0,0,0,0,
515.049,-139.762,0.456014,-179.001,0.343924,-0.938949,0.00681669,-0.00673504,0.00110515,0.000269985,0.000133582,0.207271,0.167247,10.0258,0.965746,0.642064,-0.381375,43.97,101.014,0.024999,0.0050696,0.00298467,0.00945561,0.00404072,0.00387299,0.250559,-1.15843,-0.13059,0.362425,-0.0924082,-0.0881133,-10.0285,0.129324,-0.00349428,0.233819,-0.0924082,-0.0881133,-0.234744,0,1000,0,0,0,0,
515.075,-139.763,0.456163,-179.001,0.343915,-0.938952,0.00681782,-0.00673675,0.000924756,0.00144555,0.00265478,0.141694,0.18869,10.0287,0.9683,0.638098,-0.379791,43.95,100.997,0.025,0.00491697,0.00481287,0.0124429,0.00445818,0.00413913,0.250539,-1.15779,-0.135259,0.360886,-0.0561069,-0.0294166,-10.0313,0.0637216,0.0179175,0.236752,-0.0561069,-0.0294166,-0.237528,0,1000,0,0,0,0,
515.1,-139.764,0.454156,-179,0.343904,-0.938956,0.0068311,-0.00672285,0.000953724,0.00291591,0.00126892,0.147891,0.177413,10.0001,0.967023,0.640762,-0.377066,43.95,101.01,0.025001,0.00488428,0.00603268,0.0120923,0.00303304,0.00467574,0.25041,-1.15849,-0.132384,0.358149,-0.0542204,-0.0421362,-10.0025,0.0702613,0.00648984,0.208135,-0.0542204,-0.0421362,-0.208767,0,1000,0,0,0,0,
515.126,-139.765,0.451874,-178.998,0.3439,-0.938957,0.00685031,-0.00670864,-0.000417988,0.00275776,0.00223081,0.0610993,0.243649,10.0044,0.965699,0.648705,-0.381511,43.965,101.014,0.024999,0.00481678,0.00576424,0.0119087,0.0025818,0.00512734,0.250166,-1.16268,-0.125402,0.362486,-0.0307958,0.0639926,-10.0073,-0.0161402,0.0724686,0.21247,-0.0307958,0.0639926,-0.213571,0,1000,0,0,0,0,
515.151,-139.765,0.448653,-178.996,0.343896,-0.938959,0.00687687,-0.00668839,-0.000606265,0.00235913,0.000934496,0.0964882,0.211575,10.0447,0.964424,0.650025,-0.381581,43.97,101.002,0.025001,0.00483387,0.00636901,0.0119924,0.00240189,0.0055757,0.250455,-1.16255,-0.123535,0.362574,-0.036601,0.0156783,-10.0473,0.0197993,0.0400431,0.252738,-0.036601,0.0156783,-0.253548,0,1000,0,0,0,0,
515.176,-139.771,0.445438,-178.995,0.34385,-0.938975,0.00689941,-0.00666632,0.000862422,0.00122361,0.000833047,0.008485,0.228518,10.0175,0.965689,0.650044,-0.378711,43.95,100.997,0.024999,0.00387075,0.00552369,0.0123009,0.000824909,0.00553098,0.250365,-1.16348,-0.124228,0.359731,0.0189212,0.0851099,-10.0198,-0.0676544,0.0567244,0.225586,0.0189212,0.0851099,-0.226013,0,1000,0,0,0,0,
515.202,-139.768,0.440937,-178.993,0.343878,-0.938965,0.00692634,-0.00663463,-0.00111474,0.00159663,0.000286435,0.0262308,0.186353,10.0152,0.968288,0.639435,-0.376991,43.96,101.01,0.025001,0.00375175,0.00611216,0.0109886,0.000724482,0.00514374,0.250361,-1.15857,-0.134061,0.358234,0.032141,0.0407499,-10.0168,-0.0491393,0.0142746,0.223223,0.032141,0.0407499,-0.223055,0,1000,0,0,0,0,
515.227,-139.767,0.440101,-178.994,0.343881,-0.938964,0.00692088,-0.00662488,-0.000393475,0.000448002,0.000455376,0.0484815,0.155297,10.0066,0.964501,0.639421,-0.375711,43.95,101.01,0.024999,0.00280358,0.0034512,0.0097504,0.000815704,0.00416518,0.25068,-1.15564,-0.131645,0.35701,0.0348384,0.00277842,-10.0079,-0.0267456,-0.0166154,0.214655,0.0348384,0.00277842,-0.214119,0,1000,0,0,0,0,
515.253,-139.768,0.439291,-178.995,0.343877,-0.938966,0.00691443,-0.00661495,0.000226661,0.000748365,-0.000637214,0.0628429,0.13946,10.0252,0.96701,0.640754,-0.37706,43.95,100.997,0.025,0.00369428,0.00400257,0.00997175,0.00189841,0.00339459,0.250752,-1.15843,-0.13223,0.358341,0.0341894,-0.0186908,-10.0263,-0.0122458,-0.0322668,0.233243,0.0341894,-0.0186908,-0.232541,0,1000,0,0,0,0,
515.278,-139.771,0.438816,-178.996,0.343847,-0.938977,0.00690993,-0.0066086,-0.00138818,0.000748913,-0.000147263,0.0823953,0.144967,9.99393,0.965748,0.640737,-0.379931,43.95,100.997,0.025001,0.00440402,0.00432035,0.0114775,0.00164816,0.00364103,0.250513,-1.15751,-0.13133,0.361238,0.0150202,-0.0268055,-9.99528,0.00738782,-0.026631,0.20198,0.0150202,-0.0268055,-0.201533,0,1000,0,0,0,0,
515.303,-139.774,0.438573,-178.996,0.343827,-0.938984,0.0069117,-0.00660679,0.000350134,0.000692573,0.000793015,0.0641629,0.174016,10.0135,0.967025,0.638079,-0.381243,43.96,101.01,0.024999,0.0046074,0.00373051,0.0106629,0.00211893,0.00385712,0.250715,-1.15679,-0.134123,0.36259,0.0105008,0.0069389,-10.0152,-0.0108031,0.00239891,0.221541,0.0105008,0.0069389,-0.221459,0,1000,0,0,0,0,
515.329,-139.778,0.438234,-178.996,0.343794,-0.938996,0.00691555,-0.00660471,0.000838778,0.00120682,0.00125107,0.125063,0.205165,10.0553,0.967025,0.638078,-0.381243,43.95,101.01,0.025001,0.00471869,0.00440642,0.0116843,0.00253841,0.00445449,0.250844,-1.1568,-0.134038,0.362592,-0.0553986,-0.00903748,-10.058,0.0501549,0.0334938,0.263297,-0.0553986,-0.00903748,-0.264219,0,1000,0,0,0,0,
515.355,-139.781,0.435949,-178.993,0.34377,-0.939005,0.00694128,-0.00659265,0.000911438,0.000624211,0.00132995,0.0197403,0.230746,10.0201,0.968271,0.640749,-0.379841,43.95,100.997,0.025,0.00406934,0.00489072,0.0115846,0.00158689,0.00559205,0.250158,-1.15946,-0.132735,0.361147,0.00785691,0.0782382,-10.0225,-0.054777,0.0586849,0.228133,0.00785691,0.0782382,-0.228705,0,1000,0,0,0,0,
515.38,-139.779,0.433137,-178.992,0.343783,-0.939,0.00696008,-0.00657354,0.000186191,0.00104597,-0.000285184,0.061855,0.169823,10.0583,0.967012,0.640738,-0.3813,43.95,101.01,0.024999,0.00377092,0.00490925,0.0097268,0.00151048,0.00478745,0.250937,-1.1585,-0.131933,0.362649,0.0154505,0.00371226,-10.0599,-0.0121817,-0.00245666,0.266387,0.0154505,0.00371226,-0.266203,0,1000,0,0,0,0,
515.406,-139.782,0.43141,-178.991,0.343763,-0.939007,0.00697707,-0.00656351,-4.68E-05,-0.00106467,0.000804033,0.00549403,0.19875,10.0501,0.965729,0.643381,-0.382812,43.95,101.01,0.025001,0.00338786,0.00335834,0.010932,0.000464915,0.00520582,0.250998,-1.15926,-0.12901,0.364136,0.0396025,0.0618745,-10.0518,-0.0682476,0.0262271,0.258159,0.0396025,0.0618745,-0.25806,0,1000,0,0,0,0,
515.431,-139.78,0.430266,-178.99,0.343777,-0.939002,0.0069818,-0.00655476,-0.000237907,-0.0010133,-0.000209897,0.0161573,0.135134,10.0336,0.966994,0.6434,-0.379941,43.95,100.997,0.024999,0.00295801,0.00246557,0.00924921,0.000813711,0.00429359,0.250353,-1.16018,-0.129866,0.361274,0.0721075,0.00640716,-10.0342,-0.0573887,-0.0374177,0.241637,0.0721075,0.00640716,-0.240502,0,1000,0,0,0,0,
515.456,-139.779,0.431086,-178.993,0.343786,-0.939,0.00696144,-0.006555,0.00129426,-0.000682981,-0.00132493,0.0598678,0.109585,10.0061,0.968286,0.639429,-0.378403,43.95,100.997,0.025001,0.00337323,0.00246477,0.00919973,0.00101054,0.00308644,0.250441,-1.15857,-0.13378,0.359807,0.054619,-0.0407043,-10.0066,-0.0138185,-0.0625951,0.214112,0.054619,-0.0407043,-0.212869,0,1000,0,0,0,0,
515.482,-139.777,0.432496,-178.994,0.343802,-0.938994,0.00694243,-0.00656131,-0.000903603,-0.000392351,-0.00066823,0.0652287,0.094522,10.0455,0.968258,0.644764,-0.374277,43.955,101.014,0.024999,0.00398974,0.00240604,0.00976344,0.00201185,0.00283049,0.250716,-1.16191,-0.129778,0.355584,0.0609123,-0.0556037,-10.0458,-0.00869851,-0.0773523,0.253571,0.0609123,-0.0556037,-0.252102,0,1000,0,0,0,0,
515.507,-139.777,0.433673,-178.995,0.343798,-0.938995,0.00693128,-0.00656812,0.00117414,-0.000363098,0.000187759,0.114267,0.131846,9.99494,0.965763,0.638061,-0.384115,43.95,100.997,0.025,0.00499006,0.00296256,0.0105047,0.00214176,0.00314997,0.25037,-1.15585,-0.1332,0.365548,-0.00143817,-0.0580852,-9.99629,0.0401391,-0.0398689,0.20298,-0.00143817,-0.0580852,-0.202548,0,1000,0,0,0,0,
515.533,-139.775,0.435311,-178.994,0.343816,-0.938988,0.00694025,-0.00658681,0.00260092,-0.00126401,0.000529156,0.0672113,0.215874,10.0513,0.967011,0.640737,-0.3813,43.95,100.997,0.025,0.00597058,0.00220288,0.0103971,0.00230251,0.00437368,0.250666,-1.1585,-0.132031,0.36263,-0.0183793,0.0359338,-10.0538,-0.00719709,0.0438668,0.259336,-0.0183793,0.0359338,-0.260004,0,1000,0,0,0,0,
515.558,-139.773,0.435924,-178.99,0.343834,-0.938982,0.00696791,-0.00660282,0.00150382,7.99E-05,0.000176452,0.146858,0.210787,10.0461,0.963239,0.639405,-0.378582,43.93,100.993,0.025001,0.00585336,0.0027872,0.0100327,0.00288639,0.00571341,0.250964,-1.15472,-0.130664,0.359914,-0.0755011,-0.0197566,-10.0491,0.0723445,0.0381625,0.254198,-0.0755011,-0.0197566,-0.255374,0,1000,0,0,0,0,
515.583,-139.775,0.436322,-178.987,0.343815,-0.938988,0.00698823,-0.00661376,0.00151468,6.18E-05,-2.53E-05,0.0861485,0.246548,10.0067,0.967021,0.640761,-0.377065,43.95,101.01,0.024999,0.00458644,0.00280219,0.0106419,0.00216341,0.00587324,0.250242,-1.15848,-0.132027,0.358308,-0.0525683,0.0467876,-10.0098,0.0115673,0.0734777,0.21475,-0.0525683,0.0467876,-0.216097,0,1000,0,0,0,0,
515.609,-139.78,0.435995,-178.985,0.343778,-0.939002,0.00700766,-0.00661747,-0.000539281,0.000985945,-0.000662949,0.0975125,0.222565,10.0246,0.968309,0.638126,-0.374142,43.95,101.01,0.025001,0.00378518,0.00299348,0.0107415,0.00234978,0.00567341,0.25043,-1.15773,-0.134792,0.355403,-0.0452441,0.0206547,-10.0274,0.0229872,0.0491153,0.232678,-0.0452441,0.0206547,-0.23368,0,1000,0,0,0,0,
515.634,-139.782,0.435055,-178.985,0.34376,-0.939008,0.00701147,-0.00660996,-0.00147312,-0.000207095,-0.000656024,0.0334382,0.186592,10.037,0.965683,0.651364,-0.381567,43.95,101.01,0.024999,0.00255263,0.00353568,0.0108072,0.00111125,0.0051417,0.250456,-1.16439,-0.122877,0.362627,0.027003,0.0343324,-10.0387,-0.0409264,0.0131235,0.245092,0.027003,0.0343324,-0.244968,0,1000,0,0,0,0,
515.66,-139.78,0.433401,-178.986,0.343779,-0.939001,0.00701246,-0.00659514,-0.000894057,4.44E-05,-0.00125305,0.0277245,0.149165,10.0293,0.967019,0.640743,-0.381304,43.95,100.997,0.025001,0.00307258,0.00349204,0.00922686,0.00106952,0.00397627,0.250623,-1.15854,-0.131894,0.362575,0.0551171,0.00938853,-10.0303,-0.0463574,-0.0242234,0.237362,0.0551171,0.00938853,-0.236539,0,1000,0,0,0,0,
515.685,-139.78,0.435044,-178.987,0.343779,-0.939001,0.00699467,-0.00660388,0.000760828,0.000321238,0.000404081,0.0723204,0.135856,10.019,0.965704,0.650064,-0.375892,43.955,101.002,0.024999,0.003742,0.00118639,0.00906435,0.000972484,0.00350501,0.25044,-1.16346,-0.123988,0.356999,0.0295217,-0.029085,-10.0201,-0.00204225,-0.037264,0.227026,0.0295217,-0.029085,-0.22631,0,1000,0,0,0,0,
515.71,-139.778,0.437088,-178.989,0.343794,-0.938996,0.00697499,-0.00661583,-5.12E-05,-0.000784644,-0.000213302,0.0390873,0.132952,9.97758,0.969535,0.643435,-0.377034,43.95,101.01,0.025001,0.00405183,0.00166197,0.0101023,0.00185401,0.00329571,0.250382,-1.16213,-0.131569,0.358213,0.0561464,-0.00903752,-9.97839,-0.0356247,-0.0398871,0.18565,0.0561464,-0.00903752,-0.18464,0,1000,0,0,0,0,
515.735,-139.775,0.439053,-178.989,0.343818,-0.938987,0.00697072,-0.00663277,0.000501967,-0.00034127,-0.00021712,0.115474,0.177708,10.0326,0.964434,0.650026,-0.382999,43.95,100.997,0.024999,0.00506329,0.00192814,0.00956796,0.00242142,0.00414529,0.250676,-1.16259,-0.123256,0.364064,-0.0298323,-0.0244701,-10.0347,0.0404256,0.0048309,0.240647,-0.0298323,-0.0244701,-0.240997,0,1000,0,0,0,0,
515.761,-139.778,0.441768,-178.987,0.343793,-0.938996,0.00697257,-0.00665843,0.000486803,6.94E-05,-0.000575785,0.177008,0.202667,10.0265,0.967036,0.639425,-0.379867,43.965,100.985,0.025,0.003817,0.0026534,0.0101671,0.00344761,0.00514716,0.250361,-1.15771,-0.133003,0.36104,-0.092536,-0.044948,-10.0296,0.101496,0.0295857,0.234564,-0.092536,-0.044948,-0.235826,0,1000,0,0,0,0,
515.786,-139.777,0.4418,-178.987,0.343804,-0.938992,0.00697812,-0.00666087,-0.00100857,0.000750008,0.000147087,0.0833324,0.256499,10.045,0.964513,0.639419,-0.378544,43.96,101.01,0.025,0.00275346,0.00374274,0.0104853,0.00246844,0.00615273,0.250935,-1.15575,-0.131412,0.359728,-0.0553613,0.0563944,-10.0483,0.00781488,0.0832982,0.253065,-0.0553613,0.0563944,-0.254551,0,1000,0,0,0,0,
515.811,-139.776,0.44068,-178.987,0.343808,-0.938991,0.00697873,-0.00665071,-0.00195367,0.0022518,-0.000140471,0.105599,0.173666,10.0143,0.967056,0.636769,-0.379813,43.95,100.997,0.024999,0.00197716,0.00418946,0.01007,0.00288732,0.00529742,0.250908,-1.156,-0.135072,0.361047,-0.0196055,-0.0210485,-10.0163,0.0302732,0.000521684,0.222397,-0.0196055,-0.0210485,-0.222598,0,1000,0,0,0,0,
515.836,-139.778,0.439967,-178.989,0.34379,-0.938997,0.00696372,-0.00663843,-0.000903405,0.0014032,0.000693827,0.0860911,0.154165,10.0064,0.967032,0.640762,-0.378483,43.95,100.997,0.025001,0.00218447,0.00431826,0.010662,0.00167697,0.00420334,0.25066,-1.15853,-0.131984,0.359683,0.0074084,-0.0230723,-10.008,0.0108868,-0.0186194,0.214497,0.0074084,-0.0230723,-0.214212,0,1000,0,0,0,0,
515.862,-139.779,0.438538,-178.991,0.343785,-0.938999,0.00695574,-0.00662217,-0.000884505,-0.000541391,-0.000560174,0.00401839,0.0963917,10.0066,0.965799,0.635422,-0.382655,43.95,101.01,0.024999,0.00290339,0.00404759,0.010365,0.000982699,0.00334145,0.250316,-1.1542,-0.135219,0.363999,0.107012,-0.0141503,-10.0065,-0.0709416,-0.0761357,0.214709,0.107012,-0.0141503,-0.212785,0,1000,0,0,0,0,
515.887,-139.781,0.4383,-178.993,0.343764,-0.939007,0.00694029,-0.00661409,9.34E-05,-0.000128546,5.05E-05,0.069842,0.0904452,10.0205,0.960704,0.642049,-0.380144,43.96,101.01,0.025001,0.00341819,0.00362679,0.00937078,0.000850238,0.0023019,0.250528,-1.15454,-0.126846,0.361437,0.0605703,-0.0610757,-10.0207,-0.00507719,-0.081742,0.228521,0.0605703,-0.0610757,-0.227003,0,1000,0,0,0,0,
515.912,-139.783,0.439016,-178.993,0.34375,-0.939012,0.00693711,-0.00661944,-0.0001858,-0.00140946,-0.000768571,0.00219173,0.122159,10.028,0.965798,0.636782,-0.37562,43.95,101.023,0.025,0.00450947,0.00238322,0.00946005,0.000792321,0.00295109,0.250509,-1.15496,-0.134165,0.356957,0.0919646,0.00685293,-10.0283,-0.07285,-0.0500049,0.23606,0.0919646,0.00685293,-0.234579,0,1000,0,0,0,0,
515.937,-139.78,0.440136,-178.991,0.343778,-0.939002,0.0069486,-0.00663434,0.00154676,-0.000942841,-0.000662168,0.11192,0.163455,10.0225,0.965762,0.642101,-0.374316,43.95,100.997,0.024999,0.00599222,0.00195976,0.00926236,0.00162192,0.00375052,0.250298,-1.15835,-0.130157,0.35552,-0.018214,-0.0325345,-10.0243,0.0366864,-0.00902254,0.230521,-0.018214,-0.0325345,-0.230601,0,1000,0,0,0,0,
515.963,-139.781,0.440692,-178.99,0.343764,-0.939007,0.00695249,-0.00664077,0.000781427,-0.00168351,-0.00106494,0.0528928,0.211786,10.0288,0.965754,0.642069,-0.381379,43.955,101.002,0.025,0.00440527,0.0027141,0.00983902,0.00160868,0.00468395,0.250575,-1.15845,-0.130079,0.362566,-0.00408275,0.0424022,-10.0311,-0.0224352,0.0391952,0.23691,-0.00408275,0.0424022,-0.237384,0,1000,0,0,0,0,
515.988,-139.783,0.442002,-178.989,0.343752,-0.939011,0.00695608,-0.00665415,0.000797485,-0.000739212,0.000365243,0.123215,0.190699,10.0352,0.963244,0.639387,-0.384238,43.95,101.01,0.025,0.00398651,0.00196733,0.00964739,0.00291404,0.0051984,0.250551,-1.15487,-0.130453,0.365458,-0.043779,-0.0191314,-10.0377,0.0476629,0.0179524,0.243265,-0.043779,-0.0191314,-0.243904,0,1000,0,0,0,0,
516.013,-139.783,0.442599,-178.989,0.343753,-0.939011,0.00695738,-0.00666019,0.000149517,-0.000415865,-0.000157406,0.132043,0.19946,10.0278,0.964519,0.639428,-0.377133,43.95,100.997,0.025,0.00392324,0.00326501,0.00972276,0.00273846,0.00524861,0.250532,-1.15575,-0.13131,0.35833,-0.056181,-0.0180619,-10.0304,0.056389,0.0266487,0.235826,-0.056181,-0.0180619,-0.236688,0,1000,0,0,0,0,
516.038,-139.778,0.443067,-178.99,0.343789,-0.938998,0.00694963,-0.00666206,-0.000864762,-0.000743125,0.000961012,0.0614548,0.201645,10.0269,0.96446,0.647385,-0.380122,43.97,101.002,0.025001,0.00267346,0.00317328,0.0106479,0.00299568,0.00495352,0.250647,-1.16088,-0.125265,0.361179,-0.00373025,0.0293427,-10.0291,-0.0142793,0.0289613,0.234983,-0.00373025,0.0293427,-0.235339,0,1000,0,0,0,0,
516.064,-139.78,0.44275,-178.99,0.343774,-0.939003,0.00694517,-0.00665733,0.00117399,0.00137704,0.00103245,0.0864622,0.140655,10.0089,0.963242,0.640736,-0.380029,43.955,101.002,0.024999,0.00364117,0.00387871,0.0100702,0.00189736,0.00403074,0.25042,-1.15566,-0.129522,0.361225,0.0161164,-0.0331662,-10.0102,0.0107824,-0.0319135,0.216959,0.0161164,-0.0331662,-0.21644,0,1000,0,0,0,0,
516.089,-139.781,0.441792,-178.991,0.343771,-0.939004,0.00694182,-0.00664717,0.00100916,0.00187246,-0.000118822,0.0243714,0.143924,10.0038,0.965782,0.63944,-0.375675,43.96,101.014,0.025,0.00381989,0.00409729,0.0105876,0.00138879,0.00341728,0.250201,-1.15668,-0.13218,0.356901,0.0611133,0.00945866,-10.0046,-0.0511447,-0.0285142,0.211821,0.0611133,0.00945866,-0.210885,0,1000,0,0,0,0,
516.114,-139.779,0.442283,-178.993,0.343788,-0.938998,0.00692878,-0.00664713,0.000530458,-0.000163337,0.00062556,0.092623,0.111003,10.0206,0.968307,0.639453,-0.375586,43.95,101.01,0.025,0.00404197,0.00298062,0.0102788,0.00161602,0.00302324,0.25081,-1.1586,-0.133851,0.356799,0.0304514,-0.0596478,-10.0214,0.017023,-0.0611969,0.228664,0.0304514,-0.0596478,-0.227677,0,1000,0,0,0,0,
516.139,-139.778,0.442071,-178.991,0.343794,-0.938996,0.00694201,-0.00665006,0.00166506,-0.000911026,-0.000193342,-0.00880748,0.171287,9.9899,0.967074,0.634124,-0.376932,43.95,101.01,0.025001,0.00608883,0.00336579,0.00991164,0.000970346,0.00376615,0.250109,-1.15425,-0.137119,0.358234,0.0685963,0.0519074,-9.99101,-0.0843714,-0.00117653,0.197968,0.0685963,0.0519074,-0.19726,0,1000,0,0,0,0,
516.165,-139.781,0.442679,-178.989,0.34377,-0.939005,0.00695939,-0.00666183,0.00228088,-0.000618725,-0.000476368,0.0836628,0.184022,10.0015,0.969548,0.640758,-0.381217,43.955,101.014,0.024999,0.00546974,0.00159827,0.0103991,0.0013885,0.00449335,0.250537,-1.16051,-0.133546,0.362346,-0.00968568,0.00158141,-10.0035,0.00799501,0.0111618,0.20953,-0.00968568,0.00158141,-0.20975,0,1000,0,0,0,0,
516.19,-139.779,0.443952,-178.986,0.343786,-0.938998,0.0069761,-0.00667995,0.000862043,-0.00066849,0.000465326,0.089842,0.215281,10.0216,0.964479,0.643389,-0.381449,43.95,101.01,0.025001,0.00538072,0.00183057,0.00957727,0.00182945,0.00529899,0.250436,-1.15836,-0.128297,0.362521,-0.0337788,0.0210936,-10.0243,0.0139567,0.0419895,0.2297,-0.0337788,0.0210936,-0.230508,0,1000,0,0,0,0,
516.215,-139.781,0.444084,-178.984,0.343769,-0.939005,0.00699574,-0.00668819,0.000287884,-0.00054273,-0.000269348,0.0916309,0.217458,10.0264,0.967003,0.643396,-0.382773,43.95,100.997,0.024999,0.00510892,0.00329797,0.00982527,0.00293483,0.00526971,0.250337,-1.16033,-0.129855,0.363795,-0.0361748,0.0212523,-10.0291,0.0157229,0.0437521,0.234473,-0.0361748,0.0212523,-0.235327,0,1000,0,0,0,0,
516.241,-139.782,0.444873,-178.982,0.343761,-0.939007,0.00700508,-0.00669887,0.000458162,0.000322892,-0.000532795,0.155617,0.198621,10.0397,0.967052,0.638117,-0.375603,43.97,101.014,0.025,0.00396525,0.00301627,0.00970184,0.00280294,0.00568475,0.250806,-1.15684,-0.133956,0.35669,-0.0723755,-0.0346601,-10.0425,0.0795746,0.0246716,0.247772,-0.0723755,-0.0346601,-0.248781,0,1000,0,0,0,0,
516.266,-139.784,0.445215,-178.982,0.343741,-0.939015,0.00700222,-0.00670079,-0.00130191,-0.000201121,-0.000286117,0.0984429,0.181535,10.0294,0.965734,0.64473,-0.38002,43.95,101.01,0.025,0.00344959,0.00376572,0.0102753,0.00296289,0.00467036,0.250758,-1.16019,-0.127971,0.360996,-0.0178516,-0.0106296,-10.0315,0.0223418,0.0076276,0.237487,-0.0178516,-0.0106296,-0.237751,0,1000,0,0,0,0,
516.291,-139.786,0.445262,-178.983,0.343724,-0.939021,0.00699648,-0.00669897,-8.32E-05,0.000312423,0.000279141,0.128586,0.165549,10.0252,0.963222,0.643402,-0.377256,43.96,101.002,0.025001,0.00347978,0.0040766,0.0106009,0.00260996,0.00453772,0.250644,-1.15737,-0.12735,0.358283,-0.0306959,-0.0421633,-10.0273,0.0524765,-0.00823966,0.233341,-0.0306959,-0.0421633,-0.233559,0,1000,0,0,0,0,
516.316,-139.784,0.445056,-178.983,0.343741,-0.939015,0.00699502,-0.00669668,0.000696656,-0.000573462,-0.000916755,0.0110464,0.182873,10.0056,0.968261,0.64475,-0.378518,43.955,100.997,0.024999,0.00347094,0.0031627,0.0100182,0.00141494,0.00434427,0.250472,-1.1621,-0.129604,0.359488,0.0474805,0.0471291,-10.0071,-0.0650277,0.00912483,0.213708,0.0474805,0.0471291,-0.213325,0,1000,0,0,0,0,
516.342,-139.787,0.443944,-178.985,0.343722,-0.939022,0.00698503,-0.0066825,6.02E-05,0.000156098,0.000402456,0.075214,0.134171,10.0359,0.964507,0.639409,-0.379954,43.95,100.997,0.025001,0.00368215,0.00426098,0.00980356,0.00177433,0.00342512,0.250677,-1.15581,-0.131203,0.361085,0.0301084,-0.0316547,-10.037,-0.000669968,-0.0392967,0.243981,0.0301084,-0.0316547,-0.243235,0,1000,0,0,0,0,
516.367,-139.789,0.443445,-178.985,0.343702,-0.939029,0.00698867,-0.00667898,0.00112131,-0.00131475,0.0010738,0.0306832,0.182684,10.0152,0.968298,0.639442,-0.376996,43.95,101.01,0.025,0.00436223,0.00323331,0.0112062,0.00100349,0.00428745,0.250418,-1.15868,-0.133597,0.358102,0.0324042,0.034227,-10.0168,-0.0451154,0.00917558,0.223304,0.0324042,0.034227,-0.223076,0,1000,0,0,0,0,
516.392,-139.787,0.442276,-178.984,0.343722,-0.939022,0.00699741,-0.00667153,-9.81E-05,-0.000969711,-0.00152279,0.0628521,0.159944,10.014,0.964514,0.639436,-0.374304,43.96,100.997,0.025,0.00381606,0.00282403,0.00953195,0.00137152,0.00423968,0.250718,-1.15573,-0.131224,0.355453,0.0224117,-0.00411395,-10.0154,-0.0127468,-0.0136767,0.222069,0.0224117,-0.00411395,-0.221686,0,1000,0,0,0,0,
516.417,-139.787,0.443658,-178.984,0.343722,-0.939022,0.00699382,-0.00668306,-0.000809737,-0.00115654,-0.00098138,0.0970846,0.205936,10.0314,0.967052,0.636767,-0.379811,43.95,101.01,0.024999,0.00395261,0.00264741,0.00948712,0.00208461,0.00480304,0.250527,-1.15604,-0.134859,0.360963,-0.0329194,0.00890297,-10.0339,0.0212495,0.0323032,0.239458,-0.0329194,0.00890297,-0.24015,0,1000,0,0,0,0,
516.443,-139.784,0.442834,-178.983,0.343745,-0.939013,0.00700508,-0.00667975,-0.000573769,0.000325485,-0.000850639,0.0800223,0.218364,10.0066,0.964477,0.644733,-0.378653,43.95,101.01,0.025,0.00301642,0.00345397,0.00993537,0.00225579,0.00502162,0.250077,-1.15919,-0.127172,0.359685,-0.0283296,0.0293805,-10.0093,0.00432814,0.0445452,0.214728,-0.0283296,0.0293805,-0.215512,0,1000,0,0,0,0,
516.468,-139.783,0.443964,-178.983,0.343751,-0.939011,0.00700437,-0.00669006,-0.000331422,-0.000450697,3.52E-05,0.132045,0.172909,10.0105,0.967032,0.640773,-0.375657,43.95,100.997,0.025,0.0035469,0.00293884,0.00962664,0.0025888,0.00504001,0.250426,-1.15854,-0.131888,0.356717,-0.0384583,-0.0388665,-10.0127,0.0561572,-0.000966698,0.218546,-0.0384583,-0.0388665,-0.218923,0,1000,0,0,0,0,
516.493,-139.785,0.445185,-178.984,0.343737,-0.939016,0.00698724,-0.00669499,-0.000960009,0.000421579,-0.00075466,0.0534262,0.175631,9.97347,0.964563,0.631446,-0.378377,43.95,101.01,0.025001,0.00244012,0.00310391,0.00990457,0.00245503,0.00437702,0.250714,-1.15069,-0.137372,0.359619,0.0191503,0.0146459,-9.97513,-0.0226698,0.00203785,0.181559,0.0191503,0.0146459,-0.181385,0,1000,0,0,0,0,
516.519,-139.788,0.445666,-178.986,0.343709,-0.939027,0.00696866,-0.00669238,-0.000715002,-0.000224072,0.00118288,0.127612,0.140957,10.019,0.965748,0.640715,-0.385584,43.95,100.997,0.024999,0.00281312,0.00365363,0.0102085,0.00248731,0.00405848,0.250539,-1.1577,-0.130941,0.366667,-0.0145035,-0.0597793,-10.0207,0.0514338,-0.0322749,0.22713,-0.0145035,-0.0597793,-0.226916,0,1000,0,0,0,0,
516.544,-139.791,0.445053,-178.989,0.343687,-0.939035,0.00694652,-0.00667836,-0.00166293,0.000648856,0.00151408,0.0270214,0.16069,10.0208,0.969569,0.636769,-0.381132,43.95,100.997,0.025,0.00294198,0.00407563,0.0113804,0.00132032,0.00354433,0.250346,-1.15798,-0.136417,0.362299,0.0491928,0.0205374,-10.022,-0.0490522,-0.0120386,0.228887,0.0491928,0.0205374,-0.228251,0,1000,0,0,0,0,
516.569,-139.79,0.443315,-178.991,0.34369,-0.939034,0.00694172,-0.00666048,-0.000254858,0.000651405,0.000827739,0.064783,0.118063,10.044,0.968229,0.648737,-0.377184,43.95,101.01,0.025,0.00398696,0.00394055,0.00989018,0.00137719,0.00344651,0.250503,-1.1646,-0.126451,0.358195,0.0478961,-0.0366212,-10.0447,-0.0109935,-0.0544565,0.252053,0.0478961,-0.0366212,-0.250962,0,1000,0,0,0,0,
516.594,-139.789,0.443129,-178.99,0.343703,-0.939029,0.00694329,-0.00665946,0.000703712,-0.00156622,0.000391759,0.0389413,0.167998,10.0143,0.96572,0.646066,-0.377217,43.97,101.027,0.025,0.00496347,0.00302898,0.0106453,0.000954702,0.00394566,0.250601,-1.16096,-0.126901,0.358296,0.0348816,0.0184068,-10.0157,-0.0368034,-0.00454525,0.22241,0.0348816,0.0184068,-0.222004,0,1000,0,0,0,0,
516.62,-139.787,0.441731,-178.989,0.343717,-0.939024,0.00695709,-0.00665165,0.000539107,0.000335691,-0.00162065,0.0419868,0.1829,10.0494,0.965787,0.636781,-0.374201,43.965,101.002,0.025,0.0047734,0.00312978,0.00976451,0.00111842,0.00407611,0.250927,-1.15496,-0.134084,0.355455,0.023489,0.027208,-10.0511,-0.0335189,0.0101546,0.257431,0.023489,0.027208,-0.257304,0,1000,0,0,0,0,
516.645,-139.788,0.441165,-178.988,0.343714,-0.939025,0.00696669,-0.00664988,8.03E-06,-0.000211828,-0.000536805,0.115572,0.187529,10.0036,0.968315,0.63545,-0.376909,43.95,101.01,0.025001,0.00441126,0.0034677,0.00949181,0.00155991,0.00467188,0.250673,-1.15608,-0.136694,0.358164,-0.0364482,-0.0165673,-10.0059,0.0401628,0.0146194,0.211663,-0.0364482,-0.0165673,-0.212191,0,1000,0,0,0,0,
516.67,-139.79,0.44088,-178.986,0.343691,-0.939033,0.00698353,-0.00665316,0.000805886,0.000895344,-0.00108826,0.0421588,0.179641,10.0176,0.967005,0.640723,-0.384124,43.95,100.997,0.024999,0.00491634,0.00290672,0.00973977,0.00169937,0.0045547,0.250219,-1.15862,-0.131693,0.365278,0.0251276,0.0243938,-10.0193,-0.0332014,0.00640117,0.225726,0.0251276,0.0243938,-0.225542,0,1000,0,0,0,0,
516.695,-139.789,0.442248,-178.985,0.343704,-0.939028,0.00699073,-0.00666864,0.000409976,-0.000393827,0.000601087,0.11879,0.174427,10.0403,0.96575,0.639382,-0.385553,43.95,101.01,0.025,0.00485732,0.00239724,0.0106368,0.0024685,0.00468842,0.250596,-1.15683,-0.131927,0.366702,-0.0292955,-0.0292835,-10.0424,0.0431957,0.000949715,0.248343,-0.0292955,-0.0292835,-0.248647,0,1000,0,0,0,0,
516.721,-139.786,0.443931,-178.984,0.343725,-0.939021,0.00699238,-0.00668509,5.07E-06,0.00137402,0.000475087,0.0684695,0.193275,10.0255,0.966999,0.642053,-0.384152,43.965,101.002,0.025,0.00454,0.00244462,0.00989024,0.00233858,0.00477433,0.250858,-1.15949,-0.130759,0.365206,-0.00296968,0.0177998,-10.0276,-0.00741214,0.0196549,0.233631,-0.00296968,0.0177998,-0.233878,0,1000,0,0,0,0,
516.746,-139.786,0.444255,-178.984,0.343723,-0.939021,0.0069931,-0.00668836,-0.000169529,0.00214621,0.000690811,0.0955548,0.151463,9.99688,0.964483,0.642063,-0.380005,43.95,101.01,0.025001,0.00368394,0.00321085,0.010573,0.00237468,0.00445424,0.250504,-1.15751,-0.12916,0.361071,0.0029031,-0.0313612,-9.99844,0.0196177,-0.0221922,0.204969,0.0029031,-0.0313612,-0.204689,0,1000,0,0,0,0,
516.771,-139.787,0.445035,-178.984,0.343722,-0.939022,0.006991,-0.00669482,-0.000561145,-2.84E-05,-0.000484244,0.0470201,0.170903,10.0378,0.967057,0.636803,-0.371334,43.95,101.01,0.024999,0.00371707,0.00253839,0.0103137,0.00154256,0.00457372,0.250582,-1.15593,-0.134912,0.352462,0.0282362,0.0145533,-10.0393,-0.0290503,-0.00275719,0.245879,0.0282362,0.0145533,-0.245559,0,1000,0,0,0,0,
516.797,-139.786,0.443174,-178.983,0.34373,-0.939019,0.00700741,-0.00668362,-0.000672386,-0.000250944,-0.00102912,0.065368,0.185731,10.0145,0.968332,0.634126,-0.376885,43.96,101.01,0.025001,0.00401444,0.003761,0.00950423,0.00181508,0.00464932,0.250471,-1.15527,-0.137737,0.358066,0.004152,0.0138415,-10.0165,-0.0103843,0.0118439,0.222634,0.004152,0.0138415,-0.222722,0,1000,0,0,0,0,
516.822,-139.786,0.442984,-178.981,0.343722,-0.939021,0.00701844,-0.00668581,0.000549212,0.000364584,-0.000409039,0.0709432,0.209139,10.0293,0.967034,0.639435,-0.377039,43.97,101.014,0.025,0.00435312,0.00220013,0.0104157,0.00109654,0.00464204,0.250271,-1.15771,-0.132819,0.358124,-0.0148395,0.0277994,-10.0316,-0.00477671,0.0350349,0.237358,-0.0148395,0.0277994,-0.237899,0,1000,0,0,0,0,
516.847,-139.787,0.441506,-178.98,0.343715,-0.939024,0.0070341,-0.00667774,-0.000321656,-0.00111117,-0.0011913,0.0350091,0.18422,9.99821,0.967002,0.644756,-0.375737,43.95,100.997,0.025,0.00344994,0.00290399,0.00896989,0.00124074,0.00474961,0.250225,-1.1611,-0.128716,0.356738,0.0281011,0.0318887,-9.99988,-0.0404581,0.00988325,0.206309,0.0281011,0.0318887,-0.206135,0,1000,0,0,0,0,
516.872,-139.786,0.442111,-178.978,0.343726,-0.93902,0.00704506,-0.00668749,3.18E-05,-0.00194165,0.000304562,0.104181,0.172441,9.97034,0.964474,0.644736,-0.377238,43.95,100.997,0.024999,0.00476288,0.00219069,0.00985602,0.00171888,0.0047024,0.250634,-1.15919,-0.127108,0.35823,-0.0173455,-0.0216643,-9.97233,0.0286103,-0.00216362,0.178438,-0.0173455,-0.0216643,-0.178587,0,1000,0,0,0,0,
516.898,-139.786,0.444192,-178.978,0.343723,-0.939021,0.00703924,-0.00670467,0.00120801,-0.000150011,-0.000373635,0.0554334,0.200341,10.0376,0.965716,0.647398,-0.377247,43.95,101.01,0.025001,0.00396525,0.00221623,0.0095416,0.00258761,0.00463479,0.250824,-1.16187,-0.125879,0.358147,0.00332694,0.0307605,-10.0397,-0.020493,0.0257275,0.245739,0.00332694,0.0307605,-0.245993,0,1000,0,0,0,0,
516.923,-139.784,0.445791,-178.979,0.343744,-0.939013,0.00702628,-0.00671499,-0.000665254,-0.000283103,-0.000671974,0.118733,0.174968,10.0004,0.96573,0.644728,-0.380017,43.95,101.01,0.024999,0.00235076,0.00242621,0.00948258,0.00286787,0.00485027,0.250665,-1.1602,-0.127966,0.360948,-0.0291788,-0.0288522,-10.0025,0.0425336,0.000521537,0.208469,-0.0291788,-0.0288522,-0.20877,0,1000,0,0,0,0,
516.948,-139.783,0.447748,-178.979,0.343748,-0.939012,0.0070198,-0.00673084,0.000301639,1.98E-05,4.16E-05,0.0696379,0.209783,10.0271,0.967004,0.643418,-0.37712,43.95,101.01,0.025001,0.00323636,0.00256236,0.0103276,0.00254122,0.00505315,0.250831,-1.16028,-0.129832,0.358032,-0.0134418,0.0294313,-10.0295,-0.00689621,0.0353486,0.235238,-0.0134418,0.0294313,-0.235769,0,1000,0,0,0,0,
516.973,-139.783,0.448569,-178.981,0.343751,-0.939011,0.00700762,-0.00673405,1.63E-05,0.00141126,-9.50E-05,0.123271,0.170982,10.0575,0.969499,0.648754,-0.37573,43.95,101.01,0.024999,0.00347823,0.00369389,0.0100331,0.00309806,0.00412419,0.250628,-1.16561,-0.127398,0.356528,-0.0288443,-0.0348332,-10.0596,0.0465969,-0.0032496,0.265601,-0.0288443,-0.0348332,-0.265858,0,1000,0,0,0,0,
516.999,-139.785,0.448689,-178.983,0.343731,-0.939018,0.00698527,-0.00672677,-0.00183781,-3.60E-05,0.000999301,0.0670513,0.185127,10.0505,0.964527,0.63676,-0.378487,43.95,100.997,0.025001,0.00244046,0.00421841,0.010797,0.0018475,0.00420677,0.250701,-1.15411,-0.133286,0.359565,0.00454317,0.0127013,-10.0524,-0.00964369,0.0113565,0.258624,0.00454317,0.0127013,-0.258701,0,1000,0,0,0,0,
517.024,-139.785,0.446423,-178.985,0.343735,-0.939017,0.0069778,-0.00670303,-0.000307711,8.91E-05,0.000792558,0.0248662,0.132652,10.0322,0.96823,0.650077,-0.375803,43.955,101.01,0.024999,0.00282775,0.00480603,0.0110368,0.00179338,0.00371703,0.250807,-1.16547,-0.125539,0.356674,0.0698076,-4.62E-07,-10.0329,-0.0514415,-0.0408218,0.240325,0.0698076,-4.62E-07,-0.239156,0,1000,0,0,0,0,
517.049,-139.783,0.445535,-178.986,0.343747,-0.939013,0.00697212,-0.00669281,-0.000357088,0.000647946,0.000208385,0.0674912,0.169868,10.0036,0.96703,0.63941,-0.382691,43.95,100.997,0.025001,0.00358765,0.00365188,0.0107504,0.00122803,0.00418104,0.250326,-1.15778,-0.132881,0.363785,0.0125078,0.00117516,-10.0053,-0.00866467,-0.00343301,0.211702,0.0125078,0.00117516,-0.211535,0,1000,0,0,0,0,
517.074,-139.785,0.44387,-178.986,0.343735,-0.939017,0.00698081,-0.0066804,0.000252431,-0.00122458,-0.000213352,0.0261775,0.168654,10.0441,0.963235,0.640726,-0.381439,43.95,101.01,0.024999,0.00440528,0.00390075,0.0103255,0.00138197,0.00407708,0.25053,-1.1557,-0.129399,0.362563,0.0453682,0.0263302,-10.0454,-0.0496938,-0.00472298,0.252142,0.0453682,0.0263302,-0.251626,0,1000,0,0,0,0,
517.1,-139.784,0.443754,-178.987,0.343744,-0.939014,0.00697328,-0.00667665,7.62E-05,-0.000596811,-0.000162167,0.117623,0.145017,10.0348,0.968249,0.647432,-0.372922,43.95,100.997,0.025001,0.00400525,0.00373695,0.00973374,0.00213936,0.00401572,0.250445,-1.16371,-0.127613,0.353903,-0.00948726,-0.0505659,-10.0364,0.0417717,-0.0281962,0.242865,-0.00948726,-0.0505659,-0.242644,0,1000,0,0,0,0,
517.125,-139.784,0.444534,-178.988,0.343746,-0.939013,0.00696164,-0.00667966,0.000303382,-0.000947567,-0.000926549,0.0576383,0.179393,10.0653,0.965781,0.638106,-0.375643,43.95,101.01,0.024999,0.00373256,0.00320575,0.00997355,0.00205005,0.00418373,0.250697,-1.15585,-0.133131,0.356807,0.0146344,0.0143926,-10.0671,-0.0183466,0.00637282,0.273427,0.0146344,0.0143926,-0.273346,0,1000,0,0,0,0,
517.15,-139.783,0.44471,-178.988,0.343754,-0.93901,0.00695495,-0.00667893,0.000809871,0.00131439,0.000342377,0.136861,0.13722,10.0127,0.968277,0.642102,-0.375636,43.97,101.002,0.025,0.00395007,0.00425617,0.0107083,0.00285017,0.00403661,0.250428,-1.16033,-0.131716,0.356715,-0.0196105,-0.0683942,-10.0143,0.0608459,-0.0356723,0.220732,-0.0196105,-0.0683942,-0.220533,0,1000,0,0,0,0,
517.176,-139.784,0.446343,-178.988,0.343745,-0.939014,0.00695003,-0.00669221,0.000665575,-0.00125402,0.000851844,0.0750927,0.176363,10.0193,0.966945,0.65138,-0.378695,43.95,100.997,0.025001,0.00446237,0.00325473,0.0112538,0.00233452,0.00459602,0.25036,-1.16536,-0.12373,0.359593,0.00261982,0.00150578,-10.0211,-0.00120133,0.00347285,0.227376,0.00261982,0.00150578,-0.227386,0,1000,0,0,0,0,
517.201,-139.782,0.445366,-178.986,0.34376,-0.939008,0.00697251,-0.00669151,0.00116247,0.000451836,0.00144436,0.0574238,0.176497,10.0214,0.96698,0.64471,-0.384207,43.95,101.01,0.024999,0.0053328,0.00387598,0.01102,0.00224989,0.00460598,0.250488,-1.16118,-0.128821,0.365211,0.0162028,0.0125672,-10.0231,-0.0187033,0.00319605,0.229517,0.0162028,0.0125672,-0.229385,0,1000,0,0,0,0,
517.226,-139.783,0.445607,-178.985,0.343747,-0.939012,0.00697988,-0.00669632,0.0013399,-0.000391357,0.00150915,0.0837357,0.179728,10.0308,0.965755,0.640751,-0.377107,43.95,101.01,0.025001,0.004674,0.00292671,0.0114096,0.00152998,0.00459074,0.250895,-1.15758,-0.131077,0.358177,-0.00566866,-0.00213733,-10.0328,0.00756751,0.0062607,0.238908,-0.00566866,-0.00213733,-0.239033,0,1000,0,0,0,0,
517.251,-139.781,0.443385,-178.984,0.343771,-0.939004,0.00699447,-0.00668125,0.00132817,0.000663615,-0.000331294,0.0344091,0.190482,10.0052,0.965761,0.639421,-0.377079,43.95,100.985,0.025,0.00495636,0.00497249,0.0101922,0.00187596,0.00422635,0.250411,-1.15671,-0.132142,0.358198,0.0244227,0.0377593,-10.0069,-0.0413794,0.0168454,0.213249,0.0244227,0.0377593,-0.213187,0,1000,0,0,0,0,
517.277,-139.78,0.442234,-178.983,0.343778,-0.939001,0.00700421,-0.0066742,0.00142043,0.00129056,0.00128164,0.0777529,0.157951,10.031,0.967023,0.639422,-0.378447,43.95,101.01,0.024999,0.00483348,0.00349575,0.0116653,0.00122985,0.0041787,0.250684,-1.15769,-0.132953,0.359567,0.0127093,-0.0155209,-10.0326,0.00216119,-0.0158176,0.239131,0.0127093,-0.0155209,-0.238822,0,1000,0,0,0,0,
517.302,-139.782,0.441602,-178.982,0.343759,-0.939008,0.00701366,-0.00667159,0.00173681,-0.000301301,0.000889266,0.0234494,0.18042,10.0093,0.967033,0.636738,-0.384042,43.95,100.997,0.025001,0.00464449,0.00297497,0.0104214,0.00128533,0.0042825,0.250498,-1.15607,-0.134906,0.365209,0.0393106,0.0366918,-10.0108,-0.0520343,0.00649712,0.217421,0.0393106,0.0366918,-0.217094,0,1000,0,0,0,0,
517.327,-139.783,0.441176,-178.981,0.343747,-0.939012,0.00702401,-0.0066713,0.000713652,-0.000103945,-0.000947586,0.125703,0.169392,10.0271,0.969453,0.652711,-0.380043,43.955,101.01,0.024999,0.00504187,0.00286336,0.00963555,0.00175612,0.00428366,0.250268,-1.16817,-0.12427,0.360903,-0.0312736,-0.0380981,-10.0292,0.0502917,-0.00471831,0.235219,-0.0312736,-0.0380981,-0.235478,0,1000,0,0,0,0,
517.352,-139.779,0.442517,-178.979,0.343786,-0.938998,0.0070393,-0.00668975,0.000432027,-0.00111823,-0.000421948,0.0551124,0.201716,9.99217,0.969545,0.638083,-0.382565,43.95,100.997,0.025001,0.00456499,0.00210849,0.0097382,0.00184926,0.00529639,0.250263,-1.15884,-0.135567,0.363635,0.00160235,0.0322943,-9.9943,-0.0205277,0.0271969,0.200267,0.00160235,0.0322943,-0.200555,0,1000,0,0,0,0,
517.378,-139.78,0.443293,-178.977,0.343778,-0.939001,0.00705684,-0.0067033,8.53E-05,-0.000826772,-0.000212747,0.108049,0.200432,9.99548,0.965742,0.642089,-0.374306,43.95,101.01,0.024999,0.00458565,0.00220369,0.00930371,0.00263157,0.00513428,0.250321,-1.1584,-0.130097,0.355295,-0.0375547,-0.00313136,-9.998,0.0322769,0.0254997,0.203588,-0.0375547,-0.00313136,-0.204254,0,1000,0,0,0,0,
517.403,-139.78,0.444672,-178.975,0.343775,-0.939001,0.00706793,-0.00672015,0.00110886,-0.0003861,0.000638435,0.103989,0.2346,10.0306,0.968273,0.64076,-0.377015,43.95,100.997,0.025,0.00430526,0.00283936,0.00987898,0.00249616,0.00558778,0.250619,-1.15953,-0.132712,0.357963,-0.055504,0.0251834,-10.0337,0.0279809,0.0593504,0.238693,-0.055504,0.0251834,-0.239926,0,1000,0,0,0,0,
517.428,-139.782,0.444136,-178.976,0.34376,-0.939007,0.00706087,-0.00671244,-0.00108199,-0.000335039,-0.00157278,0.0786857,0.192271,9.99815,0.964489,0.639393,-0.381359,43.955,100.997,0.025,0.00207286,0.00382621,0.00926373,0.00248233,0.00470913,0.25038,-1.15583,-0.131242,0.362381,-0.00961837,0.00956582,-10.0003,0.00276891,0.0172048,0.206263,-0.00961837,0.00956582,-0.206553,0,1000,0,0,0,0,
517.454,-139.783,0.443895,-178.976,0.343751,-0.93901,0.00705782,-0.00670899,-0.00130605,-0.00078249,0.000862622,0.134424,0.191616,9.98437,0.968282,0.63942,-0.379814,43.95,101.01,0.025001,0.00272407,0.00390794,0.0105977,0.00232106,0.00506933,0.250208,-1.15872,-0.133662,0.360816,-0.0520811,-0.0267687,-9.98694,0.0585484,0.0166292,0.19248,-0.0520811,-0.0267687,-0.193194,0,1000,0,0,0,0,
517.479,-139.784,0.443352,-178.977,0.343745,-0.939012,0.00705333,-0.00670224,-0.00040622,0.00136327,-0.00037969,0.058649,0.170537,10.0313,0.965734,0.643396,-0.379987,43.95,101.01,0.025,0.00319554,0.00403767,0.0101026,0.0020337,0.00430737,0.250509,-1.15934,-0.128967,0.360955,0.0200463,0.00569488,-10.0329,-0.0171337,-0.00432134,0.239382,0.0200463,0.00569488,-0.239127,0,1000,0,0,0,0,
517.504,-139.781,0.443607,-178.978,0.343766,-0.939005,0.00704312,-0.00670108,0.000843706,-0.0011949,-0.000435314,0.119763,0.13631,10.0319,0.965747,0.64208,-0.377135,43.95,100.997,0.024999,0.00376816,0.00329795,0.0104245,0.0021364,0.00393136,0.250611,-1.15844,-0.130062,0.358136,-0.0046083,-0.0597234,-10.0334,0.0439366,-0.038354,0.239994,-0.0046083,-0.0597234,-0.239605,0,1000,0,0,0,0,
517.529,-139.78,0.443456,-178.979,0.343772,-0.939003,0.00703316,-0.00669609,-0.00124721,0.00167095,-0.000209888,0.0147599,0.167371,10.028,0.965769,0.638076,-0.381291,43.965,101.014,0.025,0.00356553,0.00335977,0.0100248,0.00124824,0.00391745,0.250446,-1.15594,-0.133118,0.362379,0.0552868,0.0319788,-10.0292,-0.0610406,-0.00707685,0.236112,0.0552868,0.0319788,-0.235469,0,1000,0,0,0,0,
517.555,-139.782,0.443706,-178.98,0.343755,-0.939009,0.00702865,-0.00669659,0.0017046,-0.00117026,0.000938425,0.0967078,0.137526,9.98071,0.964406,0.654032,-0.377427,43.95,100.997,0.025,0.00407387,0.00241791,0.0100623,0.00177253,0.00376295,0.250341,-1.16513,-0.120049,0.358243,0.0111356,-0.0432251,-9.98202,0.0208644,-0.036841,0.188808,0.0111356,-0.0432251,-0.188278,0,1000,0,0,0,0,
517.58,-139.783,0.444217,-178.981,0.343748,-0.939012,0.00702112,-0.00669852,0.0006171,0.00120272,0.000814103,0.0740471,0.190216,10.0316,0.967042,0.638111,-0.375598,43.95,100.997,0.025,0.00343326,0.0031553,0.00996714,0.00174939,0.00464303,0.250514,-1.15684,-0.133913,0.356678,-0.00470167,0.011358,-10.0336,-0.00188351,0.0159753,0.23966,-0.00470167,0.011358,-0.239884,0,1000,0,0,0,0,
517.605,-139.782,0.443371,-178.98,0.343756,-0.939009,0.00702912,-0.00669366,0.000261336,0.000773301,0.000838292,0.0757691,0.189346,10.0348,0.963211,0.64473,-0.377282,43.96,101.01,0.025001,0.00372619,0.00373749,0.00998135,0.00223749,0.0046712,0.250715,-1.15821,-0.126383,0.35828,-0.00543609,0.00936812,-10.0368,-1.68E-05,0.0149897,0.242866,-0.00543609,0.00936812,-0.243087,0,1000,0,0,0,0,
517.631,-139.779,0.443463,-178.98,0.343779,-0.939,0.00703045,-0.00669524,0.00124322,0.00178126,-0.000730488,0.108791,0.162642,10.037,0.964469,0.643361,-0.387097,43.965,101.002,0.024999,0.00376302,0.00392107,0.009888,0.00227804,0.00476787,0.250965,-1.15846,-0.128213,0.368103,-0.0133364,-0.0323818,-10.0389,0.0329894,-0.011751,0.245116,-0.0133364,-0.0323818,-0.245116,0,1000,0,0,0,0,
517.656,-139.781,0.44227,-178.981,0.343766,-0.939005,0.00702488,-0.00668197,-0.00167709,0.000226587,-0.000830939,0.0352223,0.179375,10.008,0.968221,0.648694,-0.387073,43.95,100.997,0.025001,0.00224382,0.00418395,0.00987943,0.00186622,0.00451208,0.250728,-1.16476,-0.126531,0.367989,0.0312435,0.0281634,-10.0095,-0.0403755,0.00517475,0.216056,0.0312435,0.0281634,-0.215796,0,1000,0,0,0,0,
517.681,-139.784,0.441687,-178.982,0.343744,-0.939013,0.00701623,-0.00667317,0.000549634,0.00119323,0.00116239,0.105007,0.117189,10.0612,0.965761,0.640751,-0.378524,43.955,101.014,0.025,0.00357622,0.00362913,0.0104955,0.00165226,0.00386851,0.250486,-1.1576,-0.131031,0.359625,0.0187983,-0.0647301,-10.0622,0.0295087,-0.0567909,0.269315,0.0187983,-0.0647301,-0.268483,0,1000,0,0,0,0,
517.706,-139.785,0.441472,-178.983,0.343734,-0.939017,0.00700673,-0.00666759,-7.80E-05,-0.000164025,0.000933982,0.036027,0.174153,10.0433,0.965786,0.636759,-0.379854,43.95,100.997,0.025,0.00393509,0.00382153,0.0107197,0.00173986,0.00357476,0.250685,-1.15506,-0.134064,0.361044,0.0342215,0.0235997,-10.0448,-0.0394344,0.00038634,0.251379,0.0342215,0.0235997,-0.251035,0,1000,0,0,0,0,
517.732,-139.787,0.4403,-178.983,0.343719,-0.939023,0.00700966,-0.00665763,0.000250744,0.000162283,0.00118551,0.0747448,0.126091,10.0044,0.968311,0.638127,-0.374143,43.95,100.997,0.024999,0.00463736,0.00403394,0.0111216,0.00154322,0.00356422,0.250338,-1.15777,-0.134658,0.355311,0.034837,-0.0378866,-10.0053,-0.000516347,-0.0476616,0.212484,0.034837,-0.0378866,-0.211595,0,1000,0,0,0,0,
517.757,-139.789,0.439514,-178.983,0.343704,-0.939028,0.00701822,-0.0066533,0.00187528,-0.000373985,-0.000122459,0.0272712,0.173623,10.0066,0.967043,0.638106,-0.377012,43.95,100.997,0.025001,0.00568019,0.00371488,0.0103426,0.00090386,0.00372166,0.250728,-1.15684,-0.133786,0.358194,0.0404283,0.0288517,-10.008,-0.0478556,-0.00025624,0.214677,0.0404283,0.0288517,-0.214265,0,1000,0,0,0,0,
517.782,-139.787,0.437748,-178.981,0.343716,-0.939024,0.00703894,-0.00664459,0.000842172,-0.00032965,-0.000543796,0.0584877,0.174573,10.04,0.967008,0.64207,-0.38133,43.95,101.01,0.024999,0.00482047,0.00347293,0.0096992,0.0012604,0.00454342,0.250339,-1.15945,-0.130711,0.36245,0.0165332,0.00868353,-10.0417,-0.0163373,0.000369834,0.248083,0.0165332,0.00868353,-0.247918,0,1000,0,0,0,0,
517.807,-139.788,0.437832,-178.978,0.343711,-0.939025,0.00705909,-0.0066527,6.69E-05,7.22E-05,-9.10E-05,0.0453624,0.242073,9.97075,0.965771,0.639433,-0.37567,43.95,101.01,0.025001,0.00460706,0.00203711,0.0103147,0.000976417,0.00555108,0.249999,-1.15671,-0.131953,0.356818,-0.017918,0.06898,-9.97354,-0.0294768,0.0674452,0.17885,-0.017918,0.06898,-0.179793,0,1000,0,0,0,0,
517.833,-139.789,0.437666,-178.977,0.343698,-0.93903,0.00707224,-0.00665584,7.71E-05,0.000212449,0.000732885,0.0323255,0.23078,10.0318,0.965778,0.638098,-0.377055,43.95,100.997,0.024999,0.00427192,0.00274854,0.00989083,0.00130486,0.00545142,0.251032,-1.15589,-0.132925,0.358212,0.000538096,0.0680191,-10.0343,-0.0424854,0.0558903,0.239903,0.000538096,0.0680191,-0.240531,0,1000,0,0,0,0,
517.858,-139.787,0.43824,-178.976,0.34372,-0.939022,0.00707466,-0.00666228,-0.000365991,-0.00175619,-0.00189861,0.0769611,0.221761,10.0232,0.964465,0.644714,-0.381474,43.97,101.002,0.025,0.0031558,0.00195807,0.00818999,0.00126391,0.00593294,0.25049,-1.15923,-0.12704,0.362506,-0.0277429,0.0323848,-10.0258,0.00205213,0.0467818,0.231268,-0.0277429,0.0323848,-0.232076,0,1000,0,0,0,0,
517.883,-139.785,0.439983,-178.977,0.343732,-0.939018,0.00706266,-0.00667421,-0.000376373,-0.00151423,-0.00113333,0.0186512,0.202975,10.0021,0.963229,0.639372,-0.385644,43.95,101.023,0.025,0.00243301,0.00112517,0.00860509,0.00146295,0.00492169,0.250646,-1.15492,-0.130327,0.36676,0.0286822,0.0561744,-10.004,-0.0565557,0.0281349,0.210206,0.0286822,0.0561744,-0.210235,0,1000,0,0,0,0,
517.908,-139.783,0.442609,-178.978,0.343754,-0.93901,0.00704708,-0.00669313,0.00104992,-0.00304578,-0.00145245,0.119853,0.123834,10.0144,0.968209,0.651398,-0.375825,43.95,101.01,0.025,0.00323372,0.000659898,0.00822209,0.00213001,0.00388836,0.250594,-1.16631,-0.124513,0.356656,0.00294745,-0.0692834,-10.0156,0.0441974,-0.0508482,0.222457,0.00294745,-0.0692834,-0.221849,0,1000,0,0,0,0,
517.934,-139.782,0.44462,-178.98,0.34376,-0.939007,0.0070274,-0.00670467,-0.000996536,-0.00125333,-0.00156051,0.0426735,0.161236,10.0091,0.965688,0.651398,-0.373089,43.965,101.014,0.025,0.0030063,0.00168083,0.00874637,0.00188566,0.00378642,0.250213,-1.16434,-0.122939,0.353925,0.0377266,0.00960255,-10.0104,-0.0333259,-0.0131624,0.217173,0.0377266,0.00960255,-0.216639,0,1000,0,0,0,0,
517.959,-139.782,0.446645,-178.981,0.343759,-0.939008,0.00701348,-0.00671839,0.000131329,-0.000445784,0.000341829,0.157022,0.114539,10.0219,0.968286,0.639429,-0.378403,43.95,101.01,0.025001,0.00413871,0.00196089,0.00959028,0.00300764,0.00326515,0.250559,-1.1587,-0.133723,0.359408,-0.0190578,-0.0996395,-10.0233,0.0806762,-0.059696,0.229994,-0.0190578,-0.0996395,-0.229518,0,1000,0,0,0,0,
517.984,-139.781,0.448708,-178.981,0.34377,-0.939003,0.00700703,-0.00673531,0.000846025,-0.000481713,0.000430204,0.0872792,0.205142,10.027,0.966997,0.643402,-0.379943,43.965,100.997,0.024999,0.00471436,0.00243553,0.0109334,0.00265759,0.00427974,0.250485,-1.16031,-0.12988,0.360852,-0.0239251,0.014764,-10.0295,0.010581,0.0309104,0.235135,-0.0239251,0.014764,-0.235723,0,1000,0,0,0,0,
518.009,-139.781,0.449167,-178.979,0.343767,-0.939005,0.00701697,-0.00674319,-0.000388274,-0.00146602,-0.000417672,0.10163,0.227029,10.0056,0.967018,0.640752,-0.378476,43.95,100.997,0.025001,0.00376973,0.00220534,0.0100566,0.00221614,0.00550593,0.250482,-1.1586,-0.131917,0.359409,-0.0491696,0.0222611,-10.0085,0.0248537,0.0525625,0.21368,-0.0491696,0.0222611,-0.21477,0,1000,0,0,0,0,
518.035,-139.782,0.451138,-178.979,0.343758,-0.939008,0.00700989,-0.00675883,-0.00121709,-0.000650609,-0.000917139,0.138817,0.237946,10.0115,0.96447,0.643383,-0.381444,43.955,100.997,0.024999,0.00250476,0.00152114,0.00865926,0.00253092,0.00589513,0.250447,-1.15842,-0.128226,0.362318,-0.0842604,0.00677874,-10.0149,0.0617032,0.0635045,0.219591,-0.0842604,0.00677874,-0.221167,0,1000,0,0,0,0,
518.06,-139.781,0.450349,-178.979,0.343768,-0.939004,0.00701663,-0.00675406,-0.00108137,-0.000737997,-0.00167628,0.0319833,0.24271,10.0448,0.96575,0.642088,-0.375723,43.97,101.014,0.025001,0.00272753,0.00349493,0.00967029,0.0018862,0.00597432,0.250635,-1.15845,-0.130108,0.356619,-0.00522326,0.0789508,-10.0475,-0.0449954,0.0681762,0.252921,-0.00522326,0.0789508,-0.253735,0,1000,0,0,0,0,
518.085,-139.781,0.450366,-178.981,0.343763,-0.939006,0.0070015,-0.00674863,-0.00173726,-1.76E-05,-0.000375453,0.121376,0.159785,10.0125,0.967055,0.636801,-0.371333,43.95,100.997,0.025,0.00148285,0.00323753,0.00943174,0.00228683,0.00482589,0.250512,-1.15595,-0.135021,0.352334,-0.0207233,-0.0415627,-10.0144,0.0443944,-0.0144333,0.220612,-0.0207233,-0.0415627,-0.220662,0,1000,0,0,0,0,
518.111,-139.78,0.453829,-178.989,0.343776,-0.939002,0.0069226,-0.00675205,-0.00148333,-0.00133069,-0.000945861,0.130425,0.0735547,10.0324,0.96449,0.639371,-0.387012,43.95,100.997,0.024999,0.00184719,0.00164994,0.00868954,0.00250448,0.00253263,0.250851,-1.15591,-0.131355,0.36802,0.0278992,-0.111908,-10.0329,0.0528518,-0.0992368,0.240522,0.0278992,-0.111908,-0.239145,0,1000,0,0,0,0,
518.136,-139.78,0.455277,-178.991,0.343775,-0.939002,0.00690319,-0.00675839,0.000308661,0.000399489,-0.0010252,0.115807,0.118696,9.9993,0.967013,0.6421,-0.374266,43.95,101.01,0.025001,0.00373403,0.00287845,0.00870178,0.0028529,0.00259141,0.250492,-1.15937,-0.131021,0.355204,0.00932936,-0.0673169,-10.0004,0.0379859,-0.0537813,0.207385,0.00932936,-0.0673169,-0.206701,0,1000,0,0,0,0,
518.161,-139.78,0.456469,-178.991,0.343775,-0.939002,0.00689637,-0.00676697,0.00129702,0.0012111,0.00210258,0.117083,0.13778,9.99636,0.963248,0.638082,-0.377142,43.955,101.014,0.024999,0.00450093,0.0029086,0.0116438,0.00352412,0.00301121,0.250354,-1.15396,-0.131641,0.358164,-0.00390072,-0.0533578,-9.99786,0.0390578,-0.0346298,0.204447,-0.00390072,-0.0533578,-0.20411,0,1000,0,0,0,0,
518.186,-139.78,0.45539,-178.99,0.343775,-0.939002,0.00690998,-0.00676192,0.000129046,0.00195555,0.00102351,0.105426,0.187454,10.0294,0.964482,0.642067,-0.378592,43.97,101.002,0.025001,0.00546914,0.00483891,0.0109027,0.00240278,0.0043738,0.250946,-1.1575,-0.129372,0.359538,-0.0264898,-0.00846874,-10.0317,0.0275859,0.0148279,0.237535,-0.0264898,-0.00846874,-0.237971,0,1000,0,0,0,0,
518.212,-139.778,0.454343,-178.988,0.343791,-0.938996,0.00693248,-0.00676059,0.00105949,0.00215009,0.00036394,0.103338,0.234913,10.0087,0.965707,0.64603,-0.384277,43.95,101.01,0.024999,0.00572758,0.00461147,0.0108797,0.00312586,0.00525323,0.250579,-1.16109,-0.127113,0.365134,-0.0557656,0.0288525,-10.0118,0.0256767,0.0618814,0.216819,-0.0557656,0.0288525,-0.218075,0,1000,0,0,0,0,
518.237,-139.78,0.451564,-178.986,0.343778,-0.939001,0.00695655,-0.00674345,0.000106082,0.00362051,0.00291758,0.102645,0.222343,10.018,0.965758,0.639414,-0.378491,43.95,100.997,0.025001,0.0050932,0.00629421,0.012465,0.0025524,0.00550115,0.250594,-1.15676,-0.132193,0.35949,-0.0471143,0.0190573,-10.0209,0.0254583,0.0489846,0.226102,-0.0471143,0.0190573,-0.227127,0,1000,0,0,0,0,
518.262,-139.781,0.448944,-178.984,0.343768,-0.939005,0.0069775,-0.00672667,0.000610424,0.00174929,0.000613696,0.0106864,0.207383,10.0547,0.968288,0.63944,-0.375577,43.95,101.01,0.024999,0.00439594,0.00515069,0.0112076,0.00107958,0.00519869,0.250832,-1.15865,-0.133788,0.356583,0.0332262,0.0661941,-10.0565,-0.0660521,0.0337537,0.262758,0.0332262,0.0661941,-0.26279,0,1000,0,0,0,0,
518.287,-139.784,0.446261,-178.984,0.343744,-0.939013,0.00698873,-0.00670561,5.69E-05,0.00193592,-0.000207966,0.0996347,0.134985,10.0499,0.967036,0.638101,-0.377009,43.95,100.997,0.025001,0.00406263,0.00546724,0.0110631,0.00151984,0.00424581,0.250745,-1.15685,-0.133919,0.358089,0.0116392,-0.0468324,-10.0511,0.0233547,-0.0387082,0.257949,0.0116392,-0.0468324,-0.257396,0,1000,0,0,0,0,
518.313,-139.782,0.444407,-178.984,0.343758,-0.939008,0.00699021,-0.00668906,-0.000222639,0.00124293,-0.000496415,0.00336657,0.129325,10.0399,0.967008,0.642076,-0.379917,43.955,101.01,0.025,0.00440227,0.00511436,0.0102037,0.000883046,0.00330694,0.250815,-1.15943,-0.130869,0.360964,0.0883249,0.0109448,-10.0403,-0.0725965,-0.0442845,0.247991,0.0883249,0.0109448,-0.246596,0,1000,0,0,0,0,
518.338,-139.783,0.443505,-178.984,0.343747,-0.939012,0.00699569,-0.00668258,0.000645693,-0.000396303,0.00218139,0.0720669,0.116077,10.0368,0.969507,0.646069,-0.381324,43.95,101.01,0.025,0.00505745,0.00369843,0.0117903,0.00125256,0.00285537,0.25054,-1.16394,-0.129389,0.362292,0.044281,-0.0436501,-10.0376,-0.00374197,-0.0575888,0.244918,0.044281,-0.0436501,-0.243822,0,1000,0,0,0,0,
518.363,-139.783,0.442695,-178.983,0.343751,-0.939011,0.00700429,-0.00667824,0.00164024,-0.000793567,0.00132827,0.0607049,0.147401,10.0027,0.967031,0.638072,-0.384073,43.955,101.002,0.024999,0.00557008,0.00400977,0.0101733,0.000867145,0.0032882,0.25021,-1.15693,-0.133877,0.365207,0.0321234,-0.0122962,-10.0039,-0.0149656,-0.0263941,0.21081,0.0321234,-0.0122962,-0.210187,0,1000,0,0,0,0,
518.389,-139.787,0.442426,-178.981,0.34372,-0.939022,0.00702171,-0.0066818,0.000619405,0.000118199,0.000536073,0.0596959,0.19632,10.0013,0.967045,0.638113,-0.375599,43.95,101.01,0.025001,0.00587221,0.00310778,0.0100562,0.00155047,0.0041287,0.250594,-1.15684,-0.133839,0.356716,0.00148323,0.0254242,-10.0033,-0.0159286,0.0221834,0.209346,0.00148323,0.0254242,-0.209579,0,1000,0,0,0,0,
518.414,-139.786,0.443544,-178.978,0.343727,-0.939019,0.00704638,-0.0067013,0.00213692,0.000348436,-9.20E-05,0.125129,0.243968,10.039,0.969583,0.634094,-0.385315,43.965,101.002,0.024999,0.00656214,0.00231461,0.00983585,0.00236375,0.00550923,0.250593,-1.15637,-0.138469,0.366424,-0.0780433,0.0189071,-10.0424,0.0493129,0.0692458,0.247089,-0.0780433,0.0189071,-0.248659,0,1000,0,0,0,0,
518.439,-139.79,0.442306,-178.975,0.343696,-0.93903,0.00707446,-0.00669975,-6.98E-05,4.51E-06,-3.18E-07,0.0281586,0.287491,10.0327,0.967048,0.636764,-0.379809,43.95,100.997,0.025001,0.0046789,0.00384117,0.0103429,0.00174193,0.00676979,0.250401,-1.15608,-0.134745,0.360879,-0.0320225,0.114271,-10.0361,-0.0474453,0.112265,0.240771,-0.0320225,0.114271,-0.242368,0,1000,0,0,0,0,
518.464,-139.791,0.440546,-178.973,0.343682,-0.939035,0.00709282,-0.00668998,-0.000381783,0.00172666,-8.12E-05,0.135288,0.241903,10.0271,0.965786,0.636758,-0.379854,43.95,100.997,0.024999,0.00369137,0.00457648,0.0100712,0.00249446,0.00662361,0.250827,-1.15511,-0.133885,0.360946,-0.0845632,0.00993703,-10.0306,0.0599847,0.0664061,0.235201,-0.0845632,0.00993703,-0.236808,0,1000,0,0,0,0,
518.49,-139.793,0.438659,-178.973,0.343672,-0.939039,0.00709785,-0.00667418,-0.00130592,0.00104765,-0.000793272,0.00581371,0.233983,10.0325,0.967049,0.636765,-0.37981,43.95,101.01,0.025001,0.00233681,0.00466694,0.00992764,0.00137608,0.00612896,0.250272,-1.15608,-0.134662,0.360925,0.0192584,0.0872221,-10.0348,-0.069167,0.0585007,0.240594,0.0192584,0.0872221,-0.241067,0,1000,0,0,0,0,
518.515,-139.791,0.437555,-178.975,0.343685,-0.939035,0.0070892,-0.00666088,-0.0028121,0.000863444,0.000276534,0.0675492,0.157368,10.0203,0.965707,0.648727,-0.377275,43.95,101.01,0.024999,0.00177857,0.00356778,0.00997656,0.00126147,0.00457892,0.250461,-1.16271,-0.124717,0.358221,0.021032,-0.0109638,-10.0217,-0.00724271,-0.0178667,0.228406,0.021032,-0.0109638,-0.227987,0,1000,0,0,0,0,
518.54,-139.79,0.437941,-178.977,0.343693,-0.939032,0.0070714,-0.00665805,-0.00157782,0.000380087,-0.00053022,0.0202546,0.141628,10.0315,0.965698,0.650055,-0.377302,43.95,100.997,0.025001,0.00251868,0.00261204,0.00916009,0.000693252,0.00352281,0.250559,-1.16355,-0.12373,0.358241,0.0673245,0.00776576,-10.0323,-0.0546033,-0.0332606,0.239574,0.0673245,0.00776576,-0.238518,0,1000,0,0,0,0,
518.565,-139.788,0.439156,-178.979,0.343711,-0.939026,0.00704761,-0.0066608,-0.000593321,-0.0015337,-9.92E-05,0.020659,0.0817487,10.0368,0.968301,0.638105,-0.378379,43.95,101.01,0.025,0.00261982,0.00160461,0.00968744,0.000943541,0.00256303,0.250604,-1.15784,-0.134586,0.359519,0.105642,-0.0378009,-10.0366,-0.0544066,-0.0927225,0.244942,0.105642,-0.0378009,-0.242827,0,1000,0,0,0,0,
518.591,-139.789,0.440644,-178.98,0.343698,-0.93903,0.00703686,-0.00667056,0.00142743,-0.00170967,-0.00154949,0.0624179,0.148635,9.99254,0.963168,0.648667,-0.38725,43.95,101.01,0.025,0.00424257,0.00173525,0.00903065,0.00103302,0.00329515,0.250247,-1.1609,-0.123108,0.368223,0.0299254,-0.0130305,-9.99379,-0.012902,-0.0257033,0.200637,0.0299254,-0.0130305,-0.200043,0,1000,0,0,0,0,
518.616,-139.79,0.442264,-178.979,0.34369,-0.939033,0.00703657,-0.00668544,0.000539829,-0.00184801,-0.00155565,0.0501202,0.195213,10.0221,0.965785,0.636763,-0.37844,43.95,100.997,0.024999,0.00413458,0.00128667,0.00904076,0.00179246,0.00457661,0.250231,-1.15507,-0.13395,0.359573,0.0100484,0.0303319,-10.0241,-0.0254767,0.020781,0.230236,0.0100484,0.0303319,-0.230366,0,1000,0,0,0,0,
518.641,-139.79,0.444815,-178.978,0.343696,-0.939031,0.00703863,-0.00670995,-0.000152951,-0.00109399,-0.000105981,0.160159,0.211237,9.99769,0.967036,0.639441,-0.375627,43.95,101.01,0.025,0.0043191,0.000914975,0.00872159,0.00262282,0.00529497,0.250531,-1.15772,-0.132754,0.356646,-0.0842763,-0.0281303,-10.0008,0.084126,0.0366016,0.205803,-0.0842763,-0.0281303,-0.207069,0,1000,0,0,0,0,
518.667,-139.787,0.445989,-178.977,0.343714,-0.939024,0.00704269,-0.00672254,-0.000247995,0.000547321,-0.000679186,0.0582648,0.262153,10.0119,0.968268,0.642075,-0.381285,43.95,100.997,0.025,0.00301441,0.00197975,0.00930464,0.00231633,0.00620577,0.2504,-1.16047,-0.131537,0.362216,-0.0388178,0.0764153,-10.0151,-0.0179688,0.0873567,0.219979,-0.0388178,0.0764153,-0.221356,0,1000,0,0,0,0,
518.692,-139.786,0.447543,-178.978,0.343728,-0.939019,0.00702974,-0.00673238,-0.00187489,-0.000873401,-0.000861824,0.162924,0.193559,10.0308,0.967015,0.63939,-0.38551,43.96,101.01,0.025001,0.00162168,0.00192257,0.00912893,0.00315872,0.00554313,0.250312,-1.15785,-0.132787,0.366483,-0.0740396,-0.0433902,-10.0337,0.0864254,0.0189329,0.238948,-0.0740396,-0.0433902,-0.239915,0,1000,0,0,0,0,
518.717,-139.786,0.449559,-178.981,0.343725,-0.93902,0.00700212,-0.00674097,-0.00244518,-0.000703626,-0.000420916,0.0809099,0.175843,9.97052,0.964486,0.640731,-0.379976,43.965,101.014,0.025,0.0017691,0.00217025,0.0104254,0.00253061,0.00420286,0.250326,-1.15669,-0.130192,0.360942,-0.00106017,-0.00287297,-9.9724,0.00406616,0.00166766,0.178624,-0.00106017,-0.00287297,-0.178652,0,1000,0,0,0,0,
518.742,-139.787,0.450872,-178.984,0.343718,-0.939023,0.00697451,-0.00674299,-0.000418391,-0.00156255,0.00130268,0.102372,0.106877,10.0323,0.965714,0.646057,-0.378628,43.97,101.002,0.025,0.00230367,0.00252217,0.010793,0.0026088,0.00307801,0.250952,-1.16103,-0.126931,0.3595,0.0279917,-0.0693837,-10.0332,0.0253037,-0.0668035,0.24044,0.0279917,-0.0693837,-0.239409,0,1000,0,0,0,0,
518.768,-139.787,0.452462,-178.987,0.343718,-0.939023,0.00694605,-0.00674735,0.000525234,-0.000875275,-0.000130792,0.0936315,0.064162,10.0258,0.968219,0.648726,-0.378593,43.95,100.997,0.024999,0.00348647,0.00282126,0.00995765,0.00210659,0.00189879,0.250692,-1.16467,-0.126532,0.359404,0.0620077,-0.0957376,-10.0258,0.0162915,-0.109024,0.233922,0.0620077,-0.0957376,-0.232079,0,1000,0,0,0,0,
518.793,-139.788,0.452467,-178.987,0.343708,-0.939027,0.00694675,-0.00674755,0.0012178,-0.000485326,0.0015549,0.0468439,0.124504,10.0199,0.965763,0.638078,-0.379875,43.95,101.01,0.025,0.00502952,0.00349944,0.0106232,0.00190216,0.00261543,0.250332,-1.15594,-0.133041,0.360893,0.0586954,-0.0194141,-10.0206,-0.0304968,-0.0486957,0.228012,0.0586954,-0.0194141,-0.226867,0,1000,0,0,0,0,
518.818,-139.792,0.452983,-178.986,0.343678,-0.939038,0.00694704,-0.00675215,0.000512869,-0.000441958,0.000498097,0.149937,0.125911,10.0057,0.969462,0.651388,-0.378602,43.95,100.997,0.025,0.00489683,0.00316858,0.0107694,0.0022433,0.00338963,0.250658,-1.16735,-0.125201,0.359345,-0.0211001,-0.0847442,-10.0073,0.0725083,-0.0473228,0.213842,-0.0211001,-0.0847442,-0.213538,0,1000,0,0,0,0,
518.843,-139.791,0.453323,-178.985,0.343683,-0.939036,0.00695895,-0.00675973,0.00133021,0.000525518,0.000864991,0.0248612,0.214791,10.0636,0.967001,0.642082,-0.377087,43.95,101.01,0.025,0.00533851,0.00299811,0.0105343,0.00199388,0.004682,0.2507,-1.15944,-0.130739,0.357991,0.0182924,0.0632139,-10.0657,-0.0526259,0.0412867,0.271679,0.0182924,0.0632139,-0.271943,0,1000,0,0,0,0,
518.869,-139.789,0.454066,-178.982,0.343698,-0.93903,0.00697832,-0.00677388,-6.10E-06,-0.000880394,0.000879303,0.118504,0.226493,10.0463,0.965751,0.640749,-0.377105,43.95,101.01,0.025,0.00550809,0.00225666,0.010742,0.0022801,0.00567566,0.250681,-1.15764,-0.130978,0.358,-0.060675,0.011572,-10.0493,0.0408895,0.0525361,0.254393,-0.060675,0.011572,-0.255602,0,1000,0,0,0,0,
518.894,-139.788,0.454743,-178.981,0.343711,-0.939025,0.00698494,-0.00678271,-0.00103861,-0.00137443,-0.00136549,0.0593711,0.231965,10.0086,0.963235,0.638046,-0.384202,43.95,101.01,0.025001,0.00360169,0.002503,0.00950296,0.00224904,0.00600524,0.250992,-1.1541,-0.131387,0.365139,-0.0195011,0.0541774,-10.0113,-0.0183587,0.0578258,0.216706,-0.0195011,0.0541774,-0.217547,0,1000,0,0,0,0,
518.919,-139.787,0.454483,-178.981,0.343716,-0.939023,0.00698796,-0.00678146,0.000191042,0.00113059,0.000348327,0.121471,0.174337,10.0441,0.965752,0.640744,-0.37852,43.95,101.01,0.024999,0.00362769,0.00367033,0.00977203,0.0029157,0.0048918,0.250892,-1.15766,-0.131011,0.359391,-0.0291096,-0.0302879,-10.0462,0.0437858,0.000150044,0.252186,-0.0291096,-0.0302879,-0.252488,0,1000,0,0,0,0,
518.945,-139.788,0.454301,-178.981,0.343708,-0.939026,0.00698523,-0.00677868,8.36E-05,0.000822623,0.00018806,0.108263,0.168084,10.0054,0.967015,0.639395,-0.384096,43.95,101.01,0.025001,0.003933,0.0043316,0.0104403,0.00265275,0.00444641,0.250295,-1.15785,-0.13279,0.364989,-0.0157363,-0.0261747,-10.0074,0.0306091,-0.00603315,0.213556,-0.0157363,-0.0261747,-0.213651,0,1000,0,0,0,0,
518.97,-139.785,0.454087,-178.982,0.343737,-0.939016,0.00698065,-0.00677531,-0.00026756,0.000610022,0.00161909,0.0833432,0.149594,10.0313,0.96575,0.640737,-0.379931,43.95,101.01,0.024999,0.00416436,0.0041523,0.0106049,0.00276743,0.00363231,0.250524,-1.15767,-0.131057,0.360821,0.0155849,-0.0243662,-10.0327,0.00572549,-0.0244186,0.239436,0.0155849,-0.0243662,-0.239002,0,1000,0,0,0,0,
518.995,-139.786,0.453953,-178.982,0.343725,-0.93902,0.00698037,-0.00677384,0.000421696,0.000415266,0.000974075,0.0909357,0.138671,10.0279,0.96703,0.638087,-0.379832,43.95,101.01,0.025001,0.00480493,0.00405244,0.0111129,0.00198594,0.00381554,0.250212,-1.15694,-0.13388,0.360762,0.0167476,-0.0375829,-10.0292,0.013341,-0.0353255,0.235993,0.0167476,-0.0375829,-0.235427,0,1000,0,0,0,0,
519.02,-139.788,0.45251,-178.981,0.343711,-0.939025,0.00699557,-0.00676585,0.00048203,0.00126722,0.000521821,0.023331,0.181998,10.0196,0.966993,0.6434,-0.379941,43.95,101.01,0.025,0.00502058,0.0040791,0.0108185,0.00139118,0.00422818,0.250536,-1.16034,-0.129749,0.360787,0.0402186,0.0388793,-10.0211,-0.0540171,0.00777645,0.227701,0.0402186,0.0388793,-0.227369,0,1000,0,0,0,0,
519.046,-139.788,0.450887,-178.979,0.343711,-0.939025,0.00701392,-0.00675749,0.000232887,-0.000446219,-0.000550142,0.0831842,0.20102,10.0102,0.965756,0.639402,-0.381316,43.95,101.01,0.025,0.00478039,0.00434499,0.0110694,0.001684,0.00499775,0.250521,-1.15684,-0.131976,0.362251,-0.0179603,0.0144412,-10.0125,0.00611351,0.0265177,0.218305,-0.0179603,0.0144412,-0.218784,0,1000,0,0,0,0,
519.071,-139.791,0.449242,-178.977,0.343687,-0.939034,0.00703617,-0.0067501,-0.000552739,0.000516718,0.0001331,-0.0185477,0.257298,10.0195,0.96697,0.646037,-0.384233,43.95,100.997,0.024999,0.00389528,0.00383861,0.0110215,0.0010808,0.00582574,0.250863,-1.16211,-0.127592,0.365044,0.0235885,0.122549,-10.022,-0.0953372,0.082438,0.22758,0.0235885,0.122549,-0.228261,0,1000,0,0,0,0,
519.096,-139.79,0.448232,-178.976,0.343694,-0.939031,0.00704937,-0.00674563,-0.000679057,-0.00034282,0.000151539,0.0835358,0.236135,10.0194,0.965782,0.636761,-0.378438,43.95,101.01,0.025001,0.00321916,0.00323357,0.0099794,0.00177001,0.00592271,0.25077,-1.15511,-0.133967,0.359428,-0.0407071,0.040206,-10.0224,0.00691887,0.0610619,0.227524,-0.0407071,0.040206,-0.228626,0,1000,0,0,0,0,
519.122,-139.787,0.447041,-178.976,0.343715,-0.939024,0.00705195,-0.0067357,-0.00220867,0.000596178,-0.00176631,0.0617717,0.223694,10.0309,0.96451,0.638088,-0.377097,43.95,100.997,0.024999,0.00240975,0.00394296,0.00920896,0.00155507,0.00575691,0.250557,-1.15496,-0.132189,0.358095,-0.0160294,0.0445353,-10.0334,-0.0146415,0.0486382,0.238989,-0.0160294,0.0445353,-0.239698,0,1000,0,0,0,0,
519.147,-139.786,0.446223,-178.977,0.343723,-0.93902,0.00704567,-0.00672589,-0.00161989,-0.000478454,0.000327735,0.0688836,0.168176,9.99477,0.963113,0.656652,-0.383173,43.95,100.985,0.025001,0.00210607,0.00382095,0.00952936,0.00225389,0.00478383,0.250156,-1.16597,-0.117082,0.363875,0.0135121,-0.00209074,-9.99642,-0.00738987,-0.00669882,0.202887,0.0135121,-0.00209074,-0.202671,0,1000,0,0,0,0,
519.172,-139.786,0.446671,-178.98,0.343728,-0.939019,0.00701862,-0.0067202,-0.00197254,0.000976403,-0.00123187,0.116698,0.158862,10.0495,0.969491,0.646037,-0.386969,43.95,100.997,0.024999,0.00164157,0.00357228,0.00976168,0.00229267,0.00399738,0.250805,-1.16404,-0.129302,0.367838,-0.0163274,-0.0400729,-10.0513,0.0403478,-0.0154767,0.257566,-0.0163274,-0.0400729,-0.257556,0,1000,0,0,0,0,
519.197,-139.784,0.445959,-178.981,0.343742,-0.939014,0.00700863,-0.00671007,-0.00177413,0.000173104,3.59E-05,0.033744,0.132807,9.98693,0.96702,0.640754,-0.378478,43.95,100.997,0.025,0.00324313,0.0040293,0.00975501,0.0017917,0.0034474,0.250615,-1.15859,-0.131853,0.35949,0.0624839,-0.0057591,-9.98768,-0.0424844,-0.0412814,0.195034,0.0624839,-0.0057591,-0.193933,0,1000,0,0,0,0,
519.223,-139.784,0.446096,-178.983,0.343743,-0.939014,0.0069953,-0.00670648,-0.000322356,0.00144326,0.000400321,0.103818,0.129926,9.99304,0.968278,0.640747,-0.381258,43.95,101.01,0.025,0.00379826,0.00373773,0.0102028,0.0020263,0.00350135,0.250664,-1.15958,-0.132657,0.362275,0.0107827,-0.0530296,-9.99427,0.0275665,-0.0438934,0.20113,0.0107827,-0.0530296,-0.200528,0,1000,0,0,0,0,
519.248,-139.784,0.445518,-178.984,0.343744,-0.939013,0.00699236,-0.00670003,-0.000520642,0.000907394,0.00119794,0.0276086,0.18984,10.0052,0.967027,0.639419,-0.379863,43.95,100.997,0.025001,0.00333865,0.00346151,0.0109468,0.00137782,0.00419634,0.250728,-1.15774,-0.132877,0.36093,0.0303723,0.0418328,-10.0069,-0.0485444,0.0161187,0.213246,0.0303723,0.0418328,-0.213115,0,1000,0,0,0,0,
519.273,-139.783,0.44552,-178.983,0.343748,-0.939012,0.00699505,-0.00670108,-0.000509694,0.000266784,-0.000473901,0.0978288,0.164014,10.0386,0.968201,0.651355,-0.385714,43.955,101.002,0.025,0.00359385,0.00255426,0.00993986,0.00166673,0.0046046,0.250504,-1.16645,-0.124481,0.366556,-0.00595656,-0.0235556,-10.0404,0.0216754,-0.00976475,0.246727,-0.00595656,-0.0235556,-0.246675,0,1000,0,0,0,0,
519.299,-139.782,0.444636,-178.983,0.343759,-0.939008,0.00700309,-0.00669591,0.000865036,-0.00152269,0.000549736,0.0219521,0.209442,10.0246,0.965749,0.640716,-0.385585,43.95,100.997,0.025,0.00362568,0.0034157,0.00999012,0.00111503,0.00499857,0.25088,-1.1577,-0.131041,0.366642,0.0223703,0.0600543,-10.0266,-0.0540502,0.0355494,0.232664,0.0223703,0.0600543,-0.232832,0,1000,0,0,0,0,
519.324,-139.781,0.445548,-178.982,0.343764,-0.939006,0.0070043,-0.00670489,-0.000176584,-0.00178563,0.000103542,0.125492,0.160392,10.028,0.967016,0.642097,-0.375681,43.95,101.01,0.024999,0.00392554,0.00190079,0.0094445,0.00226946,0.00431633,0.250694,-1.15939,-0.130904,0.356684,-0.0247905,-0.0442441,-10.03,0.0493339,-0.0135841,0.236136,-0.0247905,-0.0442441,-0.236234,0,1000,0,0,0,0,
519.349,-139.778,0.448138,-178.984,0.343794,-0.938995,0.00698162,-0.00672095,0.000931543,1.33E-05,-0.00118405,0.0987718,0.170387,10.0121,0.964446,0.648726,-0.375906,43.95,100.997,0.025001,0.00375951,0.0022161,0.00900153,0.00236458,0.00396746,0.250226,-1.16171,-0.124274,0.356789,-0.0109724,-0.0186921,-10.0141,0.022171,-0.00328187,0.220232,-0.0109724,-0.0186921,-0.220305,0,1000,0,0,0,0,
519.374,-139.777,0.448857,-178.985,0.343797,-0.938994,0.00696936,-0.00672318,0.00122216,-9.54E-05,-0.000104144,0.0891111,0.146311,10.0316,0.967042,0.638111,-0.375598,43.955,101.002,0.024999,0.00396327,0.00323257,0.0104013,0.00244601,0.0035305,0.250586,-1.15683,-0.134074,0.35665,0.0122432,-0.0307561,-10.0331,0.0123873,-0.0271477,0.239738,0.0122432,-0.0307561,-0.239309,0,1000,0,0,0,0,
519.4,-139.778,0.450903,-178.988,0.343789,-0.938997,0.00694152,-0.00673192,-0.000225558,0.000323245,-0.000475578,0.13822,0.114406,10.045,0.965699,0.6487,-0.382924,43.95,101.01,0.025001,0.00377779,0.00297444,0.00923072,0.0027278,0.00319987,0.250703,-1.16277,-0.125063,0.363794,-0.00445101,-0.0863539,-10.0463,0.0611469,-0.0585989,0.253129,-0.00445101,-0.0863539,-0.252527,0,1000,0,0,0,0,
519.425,-139.779,0.451085,-178.988,0.343784,-0.938999,0.0069427,-0.00673399,0.000284784,-0.000798875,0.000251971,0.0514986,0.15841,10.0268,0.965776,0.638086,-0.379881,43.95,101.01,0.024999,0.00564523,0.00388963,0.0101547,0.00219178,0.00365465,0.250545,-1.15593,-0.133228,0.360932,0.0330873,0.00338872,-10.0282,-0.025606,-0.0146299,0.234911,0.0330873,0.00338872,-0.234407,0,1000,0,0,0,0,
519.45,-139.781,0.451859,-178.987,0.343767,-0.939005,0.00694655,-0.00674243,-0.000216335,0.000730773,0.000783763,0.12621,0.145631,10.0505,0.964496,0.640737,-0.37998,43.95,101.01,0.025001,0.00527778,0.00303362,0.010565,0.00234608,0.00415821,0.250859,-1.15667,-0.130336,0.360973,-0.0151099,-0.0548215,-10.0522,0.0489733,-0.0275358,0.2586,-0.0151099,-0.0548215,-0.258451,0,1000,0,0,0,0,
519.475,-139.782,0.45151,-178.985,0.343759,-0.939008,0.00695921,-0.00674373,0.000100578,-0.000318416,-0.000376648,0.0235424,0.19569,10.0306,0.964505,0.639414,-0.37854,43.95,101.01,0.024999,0.00516047,0.00364087,0.0104446,0.0016994,0.00453306,0.250511,-1.15581,-0.131336,0.359547,0.0307349,0.0496323,-10.0323,-0.0536347,0.0222825,0.238648,0.0307349,0.0496323,-0.238575,0,1000,0,0,0,0,
519.501,-139.782,0.450003,-178.982,0.343757,-0.939009,0.00698848,-0.00674042,0.000896134,0.00044405,0.000911314,0.0788196,0.203309,10.0311,0.966943,0.652724,-0.375899,43.95,101.01,0.025001,0.00548921,0.00398349,0.0115084,0.00194865,0.00507774,0.250636,-1.16622,-0.122743,0.356643,-0.0162421,0.0191805,-10.0334,0.00190006,0.029386,0.239188,-0.0162421,0.0191805,-0.239679,0,1000,0,0,0,0,
519.526,-139.783,0.449333,-178.98,0.34375,-0.939011,0.00700627,-0.00674064,-0.000286235,0.000858835,7.57E-05,0.0618541,0.210628,9.99569,0.967014,0.64209,-0.377093,43.965,101.014,0.024999,0.00411372,0.00355723,0.0100126,0.00162363,0.0056236,0.25038,-1.15944,-0.130869,0.358014,-0.00850259,0.0356925,-9.99803,-0.0149509,0.0363767,0.203792,-0.00850259,0.0356925,-0.204284,0,1000,0,0,0,0,
519.551,-139.785,0.448545,-178.979,0.343733,-0.939017,0.007023,-0.00673927,-0.000505705,-0.000395144,0.000619096,0.0859771,0.168101,10.0596,0.966999,0.643404,-0.379944,43.95,101.01,0.025001,0.00443359,0.00346087,0.010207,0.00224184,0.00480832,0.250717,-1.16033,-0.129778,0.360835,0.00173613,-0.0132229,-10.0614,0.00930676,-0.00644746,0.267739,0.00173613,-0.0132229,-0.267646,0,1000,0,0,0,0,
519.577,-139.786,0.447731,-178.979,0.343724,-0.93902,0.0070228,-0.00673154,-0.00129857,-0.000820484,-4.88E-06,0.0789662,0.188098,9.99605,0.968295,0.63944,-0.376994,43.965,101.023,0.024999,0.00345377,0.00454268,0.00985828,0.00202325,0.00473793,0.250519,-1.15871,-0.133644,0.357964,-0.00707428,0.00706935,-9.99812,0.00243498,0.0136055,0.204155,-0.00707428,0.00706935,-0.204378,0,1000,0,0,0,0,
519.602,-139.786,0.446782,-178.979,0.343727,-0.939019,0.00702956,-0.00672523,-0.000393622,-0.000430718,0.00125625,0.059501,0.199282,10.0428,0.968258,0.644748,-0.378516,43.95,101.01,0.025001,0.00408054,0.00414702,0.0105695,0.00220542,0.00450759,0.250706,-1.16213,-0.129555,0.359402,0.00131564,0.0276045,-10.0449,-0.0168681,0.0247073,0.250935,0.00131564,0.0276045,-0.251197,0,1000,0,0,0,0,
519.627,-139.785,0.446129,-178.979,0.343737,-0.939016,0.00703123,-0.00671987,0.000777638,7.69E-05,9.72E-05,0.127308,0.16652,10.0102,0.964483,0.642063,-0.380006,43.95,100.997,0.024999,0.00375376,0.00400194,0.0104692,0.00198268,0.00454138,0.250843,-1.15753,-0.129176,0.36098,-0.0299758,-0.0409817,-10.0123,0.0510509,-0.00804956,0.218344,-0.0299758,-0.0409817,-0.218556,0,1000,0,0,0,0,
519.652,-139.783,0.444657,-178.978,0.343747,-0.939012,0.00703699,-0.0067084,-0.000505028,0.00132225,0.000739377,0.0176273,0.227086,10.0126,0.965774,0.63808,-0.381293,43.95,101.01,0.025,0.0034611,0.00465724,0.009607,0.00179055,0.00481314,0.250692,-1.15596,-0.133057,0.362351,0.0145463,0.0758718,-10.0149,-0.0583785,0.0524871,0.220693,0.0145463,0.0758718,-0.221134,0,1000,0,0,0,0,
519.678,-139.783,0.443159,-178.977,0.343752,-0.93901,0.00705063,-0.00669953,0.000330244,0.000270155,0.0012923,0.0717183,0.215251,9.99657,0.970773,0.644727,-0.385489,43.95,101.01,0.025,0.0037562,0.00379931,0.0103413,0.0017604,0.00490938,0.250355,-1.16414,-0.131175,0.366401,-0.0194704,0.0317296,-9.99908,-0.00403145,0.0404601,0.204682,-0.0194704,0.0317296,-0.205335,0,1000,0,0,0,0,
519.703,-139.78,0.441611,-178.977,0.343771,-0.939003,0.0070576,-0.00668788,-0.000141513,0.00218945,0.000862963,0.0324667,0.203606,10.0424,0.965691,0.650029,-0.382952,43.95,100.997,0.025001,0.00265706,0.00414452,0.0101666,0.00138318,0.00525066,0.250521,-1.16362,-0.123906,0.363832,0.0186417,0.0475707,-10.0444,-0.0430185,0.0287636,0.250515,0.0186417,0.0475707,-0.250649,0,1000,0,0,0,0,
519.728,-139.777,0.440033,-178.976,0.343801,-0.938992,0.00706772,-0.00667723,8.16E-05,-0.000470357,-0.000239715,0.0648591,0.216508,10.042,0.964504,0.639413,-0.378539,43.95,101.01,0.024999,0.00303885,0.00362517,0.0103403,0.00158658,0.00512365,0.250604,-1.15578,-0.131347,0.359638,-0.0145632,0.0362391,-10.0445,-0.0103565,0.0415494,0.250127,-0.0145632,0.0362391,-0.250742,0,1000,0,0,0,0,
519.754,-139.778,0.438333,-178.977,0.343792,-0.938996,0.00706573,-0.00666061,-0.00103804,0.000754192,-0.000505024,0.0625032,0.203434,9.97789,0.968255,0.643389,-0.384136,43.95,100.997,0.025001,0.00206513,0.00420439,0.00936604,0.000990703,0.00505289,0.250329,-1.16129,-0.130658,0.365172,-0.0057638,0.0282599,-9.98012,-0.0124217,0.0286242,0.185994,-0.0057638,0.0282599,-0.186375,0,1000,0,0,0,0,
519.779,-139.776,0.436774,-178.978,0.343807,-0.93899,0.00706737,-0.00664687,-0.000425623,0.000701896,-0.000818339,0.0233027,0.179414,10.0461,0.965757,0.638041,-0.388352,43.95,101.01,0.025,0.0026877,0.00375354,0.00976032,0.00112846,0.00449286,0.250578,-1.156,-0.133123,0.369532,0.0406068,0.0345133,-10.0476,-0.0513557,0.00466557,0.254201,0.0406068,0.0345133,-0.253845,0,1000,0,0,0,0,
519.804,-139.777,0.43728,-178.981,0.343804,-0.938992,0.00704185,-0.00664219,-0.00158878,-0.000672668,-0.000301036,0.0874497,0.120477,9.97978,0.9645,0.63941,-0.378537,43.96,101.014,0.025,0.00120847,0.00227555,0.009,0.00116106,0.00402488,0.250427,-1.15574,-0.131361,0.359729,0.0282654,-0.0508845,-9.98072,0.0127048,-0.0537708,0.187872,0.0282654,-0.0508845,-0.186977,0,1000,0,0,0,0,
519.829,-139.779,0.43768,-178.983,0.343787,-0.938998,0.00702308,-0.00663887,0.000264562,-0.000928557,-0.000138626,0.0047116,0.150134,10.017,0.968269,0.642086,-0.378458,43.965,101.014,0.024999,0.00285051,0.00255345,0.00923056,0.00113662,0.00338587,0.25041,-1.16034,-0.131723,0.359592,0.0727469,0.0251953,-10.0179,-0.0701017,-0.0237444,0.225135,0.0727469,0.0251953,-0.224135,0,1000,0,0,0,0,
519.855,-139.777,0.438809,-178.985,0.343803,-0.938992,0.00699957,-0.00664092,-0.000550112,-0.000341442,-0.00135785,0.107701,0.112742,10.0128,0.966992,0.643394,-0.381354,43.95,101.01,0.025001,0.00265129,0.00196904,0.00902652,0.00148034,0.00327756,0.250363,-1.16025,-0.129931,0.362481,0.0180536,-0.0693668,-10.0138,0.0326947,-0.0607191,0.220912,0.0180536,-0.0693668,-0.220046,0,1000,0,0,0,0,
519.88,-139.777,0.440175,-178.986,0.343798,-0.938994,0.00698791,-0.00664929,0.000730437,-0.000596875,-0.000346684,0.0458717,0.172246,10.0125,0.964434,0.648702,-0.38014,43.955,101.002,0.024999,0.00378671,0.00225055,0.00945074,0.00164833,0.00392916,0.250617,-1.16171,-0.124235,0.361181,0.0269194,0.0162714,-10.0141,-0.0293681,-0.00105632,0.220591,0.0269194,0.0162714,-0.220305,0,1000,0,0,0,0,
519.905,-139.774,0.440781,-178.986,0.343826,-0.938984,0.00698743,-0.00665502,0.00107157,-0.000754691,9.81E-05,0.0942929,0.153189,10.028,0.964496,0.639408,-0.378535,43.96,101.002,0.025,0.00416655,0.00244476,0.00960228,0.00208228,0.00414138,0.250822,-1.15572,-0.131455,0.359728,0.00262345,-0.0296356,-10.0296,0.0189496,-0.0201455,0.236097,0.00262345,-0.0296356,-0.235843,0,1000,0,0,0,0,
519.93,-139.773,0.442891,-178.986,0.343835,-0.938981,0.00697692,-0.00667087,0.000722119,-0.000519069,-0.000618986,0.0822231,0.195075,10.0123,0.967057,0.635452,-0.375542,43.955,101.01,0.025,0.00370642,0.00158071,0.00984398,0.00177683,0.00448255,0.250409,-1.15508,-0.136188,0.356756,-0.0152505,0.0105767,-10.0145,0.00651912,0.0218258,0.220351,-0.0152505,0.0105767,-0.220746,0,1000,0,0,0,0,
519.956,-139.774,0.44361,-178.985,0.343826,-0.938984,0.00698323,-0.00667979,0.00102754,-0.0014374,-7.17E-05,0.073815,0.175021,10.0247,0.965792,0.635438,-0.376999,43.95,101.01,0.025001,0.00416694,0.00209171,0.0096213,0.00217151,0.00451066,0.250406,-1.15414,-0.135346,0.358198,0.00454399,0.00053446,-10.0265,-0.00201195,0.00159681,0.232832,0.00454399,0.00053446,-0.232801,0,1000,0,0,0,0,
519.981,-139.771,0.444928,-178.986,0.34385,-0.938975,0.00697485,-0.00668921,-0.000493508,-0.000360436,-0.000344294,0.112723,0.156486,10.0046,0.965723,0.644718,-0.381427,43.965,101.01,0.024999,0.00377909,0.00254431,0.00959281,0.00200132,0.0043659,0.250263,-1.16015,-0.128247,0.362446,-0.0134258,-0.0383535,-10.0064,0.0366706,-0.0168493,0.212664,-0.0134258,-0.0383535,-0.212611,0,1000,0,0,0,0,
520.006,-139.767,0.446555,-178.986,0.343878,-0.938965,0.00696851,-0.00670228,0.00124258,-0.00118157,-0.000653767,0.0409735,0.170428,10.0272,0.965741,0.642056,-0.382786,43.96,101.014,0.025,0.00448308,0.0019083,0.00875089,0.00203748,0.00395073,0.25107,-1.15847,-0.130355,0.363826,0.0329411,0.018642,-10.0287,-0.0353569,-0.00288116,0.235293,0.0329411,0.018642,-0.234922,0,1000,0,0,0,0,
520.031,-139.767,0.449349,-178.987,0.343878,-0.938964,0.00695177,-0.00672212,-3.90E-05,-0.00195178,-0.000848503,0.120073,0.147585,10.0286,0.967002,0.643416,-0.377119,43.965,101.027,0.025,0.0043133,0.00111199,0.00903747,0.00221466,0.00383937,0.250581,-1.16022,-0.130197,0.35809,-0.0124118,-0.0494444,-10.0303,0.0432652,-0.0255498,0.236716,-0.0124118,-0.0494444,-0.236559,0,1000,0,0,0,0,
520.057,-139.767,0.451174,-178.988,0.343881,-0.938964,0.00693676,-0.00673361,-2.73E-05,-0.00105331,0.000413225,0.0545297,0.172539,9.99843,0.964498,0.638037,-0.388397,43.95,101.01,0.025001,0.00447521,0.00208762,0.0103107,0.00182442,0.0035668,0.250142,-1.15504,-0.132611,0.369464,0.0210982,0.0125536,-10,-0.0225901,-0.0003969,0.206512,0.0210982,0.0125536,-0.206288,0,1000,0,0,0,0,
520.082,-139.766,0.453334,-178.987,0.343888,-0.938961,0.00694075,-0.00675522,0.0019955,-0.000921265,-0.000126012,0.149507,0.162873,10.0406,0.963194,0.646047,-0.378719,43.95,100.997,0.024999,0.00573452,0.00190563,0.00950741,0.00296821,0.00411079,0.250537,-1.15906,-0.125755,0.359605,-0.0439957,-0.0564514,-10.0428,0.0720177,-0.0102829,0.24871,-0.0439957,-0.0564514,-0.249051,0,1000,0,0,0,0,
520.107,-139.767,0.456638,-178.986,0.343877,-0.938964,0.00693974,-0.00678545,0.00172204,-0.00114086,0.00133984,0.106015,0.201419,10.0154,0.965767,0.639425,-0.377081,43.96,101.01,0.025001,0.00538465,0.00177567,0.0107467,0.00276097,0.0048051,0.25107,-1.15674,-0.132469,0.357996,-0.035561,0.00150602,-10.018,0.0279617,0.0280793,0.223543,-0.035561,0.00150602,-0.22422,0,1000,0,0,0,0,
520.132,-139.765,0.458038,-178.984,0.343893,-0.938958,0.00694625,-0.006801,-0.000694962,-0.000510341,0.000164333,0.120072,0.203993,10.0508,0.964488,0.640716,-0.384217,43.95,101.01,0.024999,0.00476691,0.00283564,0.0105869,0.00323512,0.00477869,0.250615,-1.15673,-0.130638,0.365079,-0.0469975,-0.00592386,-10.0534,0.0417793,0.0304269,0.258872,-0.0469975,-0.00592386,-0.259696,0,1000,0,0,0,0,
520.158,-139.767,0.458955,-178.984,0.343878,-0.938964,0.00695174,-0.00681139,-0.000621704,0.000956093,0.00100131,0.14853,0.235981,10.0354,0.965815,0.63278,-0.378359,43.95,101.01,0.025001,0.00409618,0.00353127,0.0103696,0.00296992,0.00544909,0.250373,-1.15253,-0.137563,0.359326,-0.0894111,0.000217199,-10.0389,0.0700801,0.0622457,0.243524,-0.0894111,0.000217199,-0.245143,0,1000,0,0,0,0,
520.183,-139.766,0.458434,-178.984,0.343892,-0.938959,0.00695144,-0.00680657,1.60E-05,0.0013257,-0.000208308,0.0955646,0.200422,10.006,0.965767,0.639414,-0.379908,43.965,100.997,0.024999,0.00306489,0.00465192,0.0109903,0.00332357,0.00494038,0.250433,-1.1568,-0.132487,0.360769,-0.0266283,0.00749569,-10.0084,0.0172039,0.0267236,0.214109,-0.0266283,0.00749569,-0.21468,0,1000,0,0,0,0,
520.208,-139.769,0.457187,-178.984,0.343864,-0.938969,0.00695027,-0.00679427,-0.000397996,0.000144563,0.00116241,0.159882,0.168375,10.0271,0.965754,0.640729,-0.38276,43.95,100.997,0.025001,0.00338383,0.00536272,0.0114885,0.00287188,0.00461659,0.250323,-1.15769,-0.13138,0.363625,-0.0549039,-0.0587416,-10.0295,0.0817341,-0.00521712,0.235201,-0.0549039,-0.0587416,-0.235716,0,1000,0,0,0,0,
520.234,-139.769,0.455462,-178.985,0.343864,-0.938969,0.00695164,-0.00677874,0.000636888,0.00404817,0.000162422,0.0498461,0.191384,10.0294,0.965762,0.640751,-0.378524,43.97,101.002,0.025,0.00380724,0.00576711,0.0111857,0.00231391,0.00434284,0.250668,-1.15762,-0.131399,0.359424,0.0140017,0.0297376,-10.0313,-0.0280066,0.0178711,0.237542,0.0140017,0.0297376,-0.237591,0,1000,0,0,0,0,
520.259,-139.772,0.453557,-178.986,0.34384,-0.938978,0.00694766,-0.00675934,-0.000267962,0.000932687,0.00109703,0.137943,0.143571,10.0313,0.965787,0.636754,-0.381268,43.95,101.023,0.024999,0.00329654,0.00546893,0.011962,0.00238648,0.0039362,0.250457,-1.1551,-0.134383,0.362283,-0.0227443,-0.0637301,-10.0331,0.0604162,-0.0297359,0.239397,-0.0227443,-0.0637301,-0.239305,0,1000,0,0,0,0,
520.284,-139.77,0.451596,-178.987,0.343855,-0.938973,0.00694706,-0.00674105,1.89E-05,0.00105706,0.00135571,0.0341798,0.171459,10.0076,0.964502,0.640751,-0.377157,43.95,101.01,0.025,0.00437744,0.00591242,0.0117584,0.00170702,0.00390541,0.25047,-1.15661,-0.130567,0.358154,0.0377051,0.0246555,-10.009,-0.0430122,-0.001715,0.215677,0.0377051,0.0246555,-0.215267,0,1000,0,0,0,0,
520.309,-139.769,0.448109,-178.986,0.343869,-0.938968,0.00696034,-0.00671364,0.000385482,0.00205281,0.000446733,0.0820665,0.158619,10.021,0.963243,0.639403,-0.379998,43.95,100.985,0.025001,0.00429155,0.00594166,0.0111106,0.00174158,0.00400391,0.250439,-1.15481,-0.130777,0.361083,0.00924543,-0.0166274,-10.0226,0.00547058,-0.0146152,0.229102,0.00924543,-0.0166274,-0.228844,0,1000,0,0,0,0,
520.335,-139.77,0.445536,-178.985,0.343856,-0.938972,0.00697681,-0.00669563,0.000149017,0.00139606,0.000390312,0.0902457,0.218972,10.008,0.96574,0.642044,-0.385612,43.95,101.01,0.024999,0.00428222,0.00553332,0.0117085,0.00151389,0.0049128,0.250049,-1.15852,-0.130279,0.366662,-0.036416,0.0238432,-10.0107,0.0140896,0.0455564,0.216092,-0.036416,0.0238432,-0.216968,0,1000,0,0,0,0,
520.36,-139.771,0.442845,-178.983,0.343851,-0.938974,0.0070032,-0.00668024,-0.000128035,0.000347813,-0.000491772,0.0520706,0.215351,10.0181,0.967017,0.639381,-0.388338,43.97,101.014,0.025001,0.00404075,0.00490448,0.0105649,0.00189383,0.0051595,0.250657,-1.15782,-0.133078,0.369445,-0.00486569,0.0450465,-10.0204,-0.0236257,0.041554,0.226159,-0.00486569,0.0450465,-0.226671,0,1000,0,0,0,0,
520.385,-139.77,0.440396,-178.983,0.343856,-0.938973,0.00701196,-0.00666073,-0.00227864,0.00246208,-0.000428576,0.111293,0.18476,10.0042,0.966996,0.643386,-0.384182,43.97,101.014,0.025,0.00314526,0.00544257,0.0105269,0.00177778,0.00485718,0.250167,-1.1603,-0.130043,0.365259,-0.0308749,-0.0167366,-10.0065,0.0360155,0.0109334,0.21233,-0.0308749,-0.0167366,-0.212761,0,1000,0,0,0,0,
520.41,-139.772,0.438164,-178.984,0.34384,-0.938979,0.00701298,-0.0066402,-0.000466237,0.00191813,-0.000149409,0.0276051,0.165551,10.0189,0.967009,0.642076,-0.379917,43.95,101.01,0.025,0.00354922,0.0053679,0.0106757,0.00174372,0.00408635,0.25108,-1.15938,-0.131042,0.361063,0.0452959,0.0223615,-10.0202,-0.047291,-0.00815531,0.227023,0.0452959,0.0223615,-0.226475,0,1000,0,0,0,0,
520.436,-139.771,0.433615,-178.985,0.343853,-0.938974,0.00701371,-0.00659832,-0.000386639,0.0028235,0.000705124,-0.000880836,0.153945,10.0255,0.967031,0.639428,-0.378451,43.97,101.002,0.025,0.00447135,0.00472343,0.0119342,0.0011942,0.00372486,0.250317,-1.15763,-0.133112,0.359739,0.0738646,0.0315382,-10.0264,-0.0749992,-0.0194934,0.23359,0.0738646,0.0315382,-0.232634,0,1000,0,0,0,0,
520.461,-139.773,0.431123,-178.985,0.343833,-0.938982,0.00702506,-0.00657912,0.00144321,0.000778629,0.00246393,0.081754,0.147715,10.0201,0.964444,0.648714,-0.378732,43.95,101.01,0.025,0.00488725,0.00491123,0.0118237,0.00146951,0.00373427,0.250557,-1.16165,-0.124285,0.359912,0.0144247,-0.0268824,-10.0215,0.00806147,-0.0258012,0.228198,0.0144247,-0.0268824,-0.227759,0,1000,0,0,0,0,
520.486,-139.774,0.428665,-178.984,0.343828,-0.938984,0.00703859,-0.00656118,-0.000226838,0.000956347,0.000773741,0.0311621,0.175567,10.0219,0.965688,0.650016,-0.385777,43.96,101.014,0.025001,0.00457312,0.00483244,0.0105404,0.000648447,0.00431859,0.250679,-1.16356,-0.124007,0.366956,0.0348565,0.0266597,-10.0234,-0.0421103,0.00192271,0.230014,0.0348565,0.0266597,-0.229691,0,1000,0,0,0,0,
520.512,-139.775,0.426346,-178.982,0.343815,-0.938988,0.00706389,-0.00654877,0.000460661,0.000495762,0.000950196,0.0183699,0.181339,10.0284,0.967064,0.63409,-0.383994,43.95,101.023,0.025,0.00473292,0.00350592,0.0114639,0.000751152,0.00467615,0.250604,-1.1543,-0.137019,0.365459,0.0409508,0.0387102,-10.0299,-0.0545061,0.00731422,0.236508,0.0409508,0.0387102,-0.236189,0,1000,0,0,0,0,
