Timestamp,Yaw,Pitch,Roll,Qtn[0], Qtn[1], Qtn[2], Qtn[3],Rate X,Rate Y,Rate Z,Accel X,Accel Y,Accel Z,Mag X,Mag Y,Mag Z,Temp,Pres,dTime,dTheta X,dTheta Y,dTheta Z,dVel X,dVel Y,dVel Z,MagNed X,MagNed Y,MagNed Z,AccelNed X,AccelNed Y,AccelNed Z,LinearAccel X,LinearAccel Y,LinearAccel Z,LinearAccelNed X,LinearAccelNed Y,LinearAccelNed Z,Amplitude,Distance,Light 1,Light 2,Light 3,Light 4,Comments
0.494833,-128.744,-22.5105,-79.5062,-0.406568,0.500576,-0.733826,0.213602,0.403432,-0.181134,0.292638,-4.6022,7.8033,-2.20264,0.0866619,-0.507912,0.24604,19.8,100.001,0.025,0.548964,-0.187481,0.473072,-0.112744,0.196695,-0.0469309,0.196835,0.00655608,0.535942,0.145489,1.37108,-9.22076,-0.852646,-1.09293,-0.554819,0.145489,1.37108,0.572989,
0.520375,-128.344,-21.8757,-78.5507,-0.402998,0.495468,-0.736458,0.223011,0.409943,-0.254216,0.209105,-4.38729,8.8961,-1.04033,0.080788,-0.499352,0.250847,19.79,99.989,0.025,0.578314,-0.2571,0.349908,-0.105928,0.224028,-0.0249118,0.193211,0.00773828,0.530484,1.04795,0.121936,-9.91757,-0.738206,-0.0115895,0.763754,1.04795,0.121936,-0.12382,
0.545728,-128.344,-21.8757,-78.5507,-0.402998,0.495468,-0.736458,0.223011,0.409943,-0.254216,0.209105,-4.38729,8.8961,-1.04033,0.080788,-0.499352,0.250847,19.79,99.989,0.025,0.578314,-0.2571,0.349908,-0.105928,0.224028,-0.0249118,0.193211,0.00773828,0.530484,1.04795,0.121936,-9.91757,-0.738206,-0.0115895,0.763754,1.04795,0.121936,-0.12382,
0.571126,-127.465,-21.5446,-77.7608,-0.403373,0.488569,-0.737693,0.233237,0.328376,-0.135023,0.136396,-5.24819,8.77027,-0.852268,0.0832125,-0.509045,0.26544,19.81,100.017,0.025,0.538288,-0.345789,0.250372,-0.123471,0.217161,-0.0283587,0.196857,0.00781991,0.545615,1.82905,0.699383,-10.0674,-1.65168,-0.132158,1.07888,1.82905,0.699383,-0.273673,
0.596455,-127.465,-21.5446,-77.7608,-0.403373,0.488569,-0.737693,0.233237,0.328376,-0.135023,0.136396,-5.24819,8.77027,-0.852268,0.0832125,-0.509045,0.26544,19.81,100.017,0.025,0.538288,-0.345789,0.250372,-0.123471,0.217161,-0.0283587,0.196857,0.00781991,0.545615,1.82905,0.699383,-10.0674,-1.65168,-0.132158,1.07888,1.82905,0.699383,-0.273673,
0.621727,-127.446,-21.3822,-77.4005,-0.401818,0.486808,-0.738985,0.235501,0.218694,0.0796542,0.103913,-4.49874,8.88876,-1.08215,0.0819642,-0.499289,0.262591,19.805,100.005,0.024999,0.370348,0.0120591,0.193106,-0.124606,0.220923,-0.021494,0.191296,0.00743312,0.536947,1.27266,0.209771,-9.93761,-0.928063,-0.011259,0.907154,1.27266,0.209771,-0.143867,
0.646957,-127.475,-21.0848,-76.7996,-0.398794,0.484179,-0.741223,0.239004,0.22814,-0.0855491,0.0921672,-3.31048,8.59212,-2.0898,0.0784971,-0.500497,0.26769,19.79,100.013,0.025,0.313119,-0.0481428,0.169645,-0.0842775,0.216971,-0.0515341,0.191597,0.00941873,0.539925,-0.113626,-0.0290326,-9.44125,0.21281,-0.304477,-0.00306313,-0.113626,-0.0290326,0.352491,
0.672167,-127.475,-21.0848,-76.7996,-0.398794,0.484179,-0.741223,0.239004,0.22814,-0.0855491,0.0921672,-3.31048,8.59212,-2.0898,0.0784971,-0.500497,0.26769,19.79,100.013,0.025,0.313119,-0.0481428,0.169645,-0.0842775,0.216971,-0.0515341,0.191597,0.00941873,0.539925,-0.113626,-0.0290326,-9.44125,0.21281,-0.304477,-0.00306313,-0.113626,-0.0290326,0.352491,
0.697376,-126.907,-20.9683,-76.3577,-0.399599,0.479792,-0.741737,0.24484,0.218401,-0.21088,0.0899818,-2.92073,8.20239,-2.07336,0.0784699,-0.495549,0.279288,19.795,100.013,0.025001,0.326665,-0.30761,0.148659,-0.0738396,0.206848,-0.050212,0.197203,0.00525881,0.539269,-0.244383,-0.191772,-8.94496,0.583965,-0.684787,0.0836228,-0.244383,-0.191772,0.848788,
0.722623,-126.907,-20.9683,-76.3577,-0.399599,0.479792,-0.741737,0.24484,0.218401,-0.21088,0.0899818,-2.92073,8.20239,-2.07336,0.0784699,-0.495549,0.279288,19.795,100.013,0.025001,0.326665,-0.30761,0.148659,-0.0738396,0.206848,-0.050212,0.197203,0.00525881,0.539269,-0.244383,-0.191772,-8.94496,0.583965,-0.684787,0.0836228,-0.244383,-0.191772,0.848788,
0.747855,-126.595,-20.7456,-76.0262,-0.398938,0.477429,-0.742169,0.249189,0.126381,-0.0878043,0.103309,-2.99835,8.32711,-1.59714,0.0819122,-0.49065,0.279313,19.805,100.013,0.024999,0.187568,-0.0702116,0.175517,-0.0809528,0.205862,-0.0413074,0.191611,0.00213401,0.537349,0.253829,-0.431353,-8.97949,0.470776,-0.560589,0.614502,0.253829,-0.431353,0.814253,
0.773063,-126.255,-20.6529,-75.9431,-0.399654,0.476065,-0.741651,0.252174,0.149249,-0.260109,0.12942,-3.01726,8.29297,-1.48173,0.0807811,-0.494327,0.278048,19.81,100.017,0.025,0.206629,-0.292279,0.197144,-0.0744949,0.207844,-0.0378978,0.190087,0.00613628,0.540393,0.381829,-0.454833,-8.92861,0.43705,-0.596945,0.744155,0.381829,-0.454833,0.865134,
0.798307,-126.255,-20.6529,-75.9431,-0.399654,0.476065,-0.741651,0.252174,0.149249,-0.260109,0.12942,-3.01726,8.29297,-1.48173,0.0807811,-0.494327,0.278048,19.81,100.017,0.025,0.206629,-0.292279,0.197144,-0.0744949,0.207844,-0.0378978,0.190087,0.00613628,0.540393,0.381829,-0.454833,-8.92861,0.43705,-0.596945,0.744155,0.381829,-0.454833,0.865134,
0.823612,-125.456,-20.3927,-75.8966,-0.401404,0.473998,-0.739723,0.258864,0.0532691,-0.120141,0.151109,-3.59639,8.44753,-1.437,0.0807279,-0.486955,0.285694,19.81,100.017,0.025001,0.126676,-0.267317,0.254074,-0.090114,0.208892,-0.0371748,0.194685,0.000271887,0.536061,0.770111,-0.0645648,-9.26081,-0.183732,-0.455698,0.799904,0.770111,-0.0645648,0.53294,
0.849069,-125.456,-20.3927,-75.8966,-0.401404,0.473998,-0.739723,0.258864,0.0532691,-0.120141,0.151109,-3.59639,8.44753,-1.437,0.0807279,-0.486955,0.285694,19.81,100.017,0.025001,0.126676,-0.267317,0.254074,-0.090114,0.208892,-0.0371748,0.194685,0.000271887,0.536061,0.770111,-0.0645648,-9.26081,-0.183732,-0.455698,0.799904,0.770111,-0.0645648,0.53294,
0.874297,-124.86,-20.1517,-75.9879,-0.402733,0.473449,-0.737658,0.263653,0.0653505,-0.288478,0.117211,-2.62123,8.8864,-2.46633,0.0795684,-0.488214,0.279176,19.8,100.005,0.025001,0.0714875,-0.324164,0.203271,-0.0691231,0.221861,-0.0576162,0.189154,0.004463,0.535559,-0.60684,-0.449,-9.55782,0.752773,-0.0342326,-0.240163,-0.60684,-0.449,0.235926,
0.899508,-124.86,-20.1517,-75.9879,-0.402733,0.473449,-0.737658,0.263653,0.0653505,-0.288478,0.117211,-2.62123,8.8864,-2.46633,0.0795684,-0.488214,0.279176,19.8,100.005,0.025001,0.0714875,-0.324164,0.203271,-0.0691231,0.221861,-0.0576162,0.189154,0.004463,0.535559,-0.60684,-0.449,-9.55782,0.752773,-0.0342326,-0.240163,-0.60684,-0.449,0.235926,
0.924775,-124.265,-20.1208,-76.0592,-0.405184,0.471931,-0.735941,0.267392,0.101612,-0.402904,0.110619,-2.8077,8.78206,-2.43824,0.0807677,-0.491848,0.284497,19.805,100.017,0.024999,0.136679,-0.540668,0.194737,-0.0664196,0.22085,-0.062846,0.193297,0.00377935,0.540369,-0.487424,-0.270262,-9.52061,0.561362,-0.143103,-0.222753,-0.487424,-0.270262,0.273131,
0.95008,-123.218,-20.1034,-76.1748,-0.409659,0.469019,-0.732969,0.273783,0.0801376,-0.299625,0.0629516,-3.53303,8.98434,-2.81752,0.084159,-0.480831,0.285692,19.79,100.013,0.024999,0.114444,-0.429531,0.138,-0.0851097,0.222863,-0.0694814,0.193434,-0.00125818,0.531491,-0.444672,0.396084,-10.0391,-0.16676,0.0537314,-0.619789,-0.444672,0.396084,-0.245396,
0.975296,-123.218,-20.1034,-76.1748,-0.409659,0.469019,-0.732969,0.273783,0.0801376,-0.299625,0.0629516,-3.53303,8.98434,-2.81752,0.084159,-0.480831,0.285692,19.79,100.013,0.024999,0.114444,-0.429531,0.138,-0.0851097,0.222863,-0.0694814,0.193434,-0.00125818,0.531491,-0.444672,0.396084,-10.0391,-0.16676,0.0537314,-0.619789,-0.444672,0.396084,-0.245396,
1.00051,-122.675,-20.1301,-76.2483,-0.412198,0.467435,-0.731406,0.276844,-0.00350865,-0.0613193,0.0171767,-3.04855,9.37491,-2.81655,0.0876769,-0.48574,0.279421,19.795,100.013,0.025,0.0194222,-0.143433,0.0617028,-0.0855504,0.229528,-0.0651603,0.186827,0.00243771,0.535534,-0.698006,-0.14872,-10.2277,0.322004,0.44302,-0.63064,-0.698006,-0.14872,-0.43397,
1.02571,-122.675,-20.1301,-76.2483,-0.412198,0.467435,-0.731406,0.276844,-0.00350865,-0.0613193,0.0171767,-3.04855,9.37491,-2.81655,0.0876769,-0.48574,0.279421,19.795,100.013,0.025,0.0194222,-0.143433,0.0617028,-0.0855504,0.229528,-0.0651603,0.186827,0.00243771,0.535534,-0.698006,-0.14872,-10.2277,0.322004,0.44302,-0.63064,-0.698006,-0.14872,-0.43397,
1.05097,-122.288,-20.1839,-76.3491,-0.414316,0.466461,-0.730136,0.278671,0.00748789,-0.13264,0.00329723,-3.81696,9.00856,-2.50889,0.0876432,-0.480819,0.285819,19.81,100.017,0.025,0.0268094,-0.228816,0.0417734,-0.0868411,0.229433,-0.0696633,0.193476,-0.00132868,0.532097,-0.0725868,0.469104,-10.0892,-0.437773,0.0759146,-0.339451,-0.0725868,0.469104,-0.29548,
1.07619,-122.127,-20.2257,-76.4113,-0.415349,0.466104,-0.729555,0.279251,-0.00629155,-0.107325,-0.00731436,-3.46473,9.00155,-2.73517,0.0888691,-0.488139,0.287317,19.8,100.001,0.025,-0.00438088,-0.162377,0.0251482,-0.0915463,0.224438,-0.0643625,0.194681,0.000534385,0.539284,-0.45829,0.292531,-10.0109,-0.078839,0.0689575,-0.576005,-0.45829,0.292531,-0.217138,
1.10148,-122.127,-20.2257,-76.4113,-0.415349,0.466104,-0.729555,0.279251,-0.00629155,-0.107325,-0.00731436,-3.46473,9.00155,-2.73517,0.0888691,-0.488139,0.287317,19.8,100.001,0.025,-0.00438088,-0.162377,0.0251482,-0.0915463,0.224438,-0.0643625,0.194681,0.000534385,0.539284,-0.45829,0.292531,-10.0109,-0.078839,0.0689575,-0.576005,-0.45829,0.292531,-0.217138,
1.12676,-121.778,-20.3613,-76.4777,-0.417665,0.464703,-0.72864,0.280519,0.0327901,-0.092958,-0.0330836,-3.78591,8.86182,-3.27433,0.0958463,-0.489344,0.286298,19.81,100.005,0.025001,0.0452896,-0.174764,-0.00638221,-0.088976,0.223294,-0.0853206,0.19149,-0.00219775,0.54216,-0.794712,0.82766,-10.1128,-0.378279,-0.0654546,-1.1274,-0.794712,0.82766,-0.319097,
1.15201,-121.778,-20.3613,-76.4777,-0.417665,0.464703,-0.72864,0.280519,0.0327901,-0.092958,-0.0330836,-3.78591,8.86182,-3.27433,0.0958463,-0.489344,0.286298,19.81,100.005,0.025001,0.0452896,-0.174764,-0.00638221,-0.088976,0.223294,-0.0853206,0.19149,-0.00219775,0.54216,-0.794712,0.82766,-10.1128,-0.378279,-0.0654546,-1.1274,-0.794712,0.82766,-0.319097,
1.17739,-121.903,-20.4862,-76.3782,-0.417597,0.464009,-0.729536,0.279437,0.0256057,0.0619856,-0.0611689,-3.27138,9.10974,-2.99716,0.0935121,-0.489399,0.277112,19.8,100.001,0.025001,0.0238193,0.0999816,-0.0539387,-0.08871,0.223104,-0.0707744,0.184537,0.00492582,0.539415,-0.80005,0.166911,-10.0997,0.156247,0.193444,-0.836496,-0.80005,0.166911,-0.305974,
1.20271,-121.903,-20.4862,-76.3782,-0.417597,0.464009,-0.729536,0.279437,0.0256057,0.0619856,-0.0611689,-3.27138,9.10974,-2.99716,0.0935121,-0.489399,0.277112,19.8,100.001,0.025001,0.0238193,0.0999816,-0.0539387,-0.08871,0.223104,-0.0707744,0.184537,0.00492582,0.539415,-0.80005,0.166911,-10.0997,0.156247,0.193444,-0.836496,-0.80005,0.166911,-0.305974,
1.22793,-121.884,-20.6905,-76.156,-0.418243,0.461681,-0.730695,0.2793,0.0970886,-0.023731,-0.0780614,-3.8319,9.56148,-2.80312,0.095806,-0.48445,0.287495,19.81,100.005,0.025001,0.143272,-0.0690439,-0.0734018,-0.088343,0.238121,-0.0757016,0.191878,-0.000561744,0.538244,-0.332633,0.286579,-10.6663,-0.371576,0.665564,-0.610816,-0.332633,0.286579,-0.872564,
1.25318,-121.934,-20.7963,-76.0036,-0.418244,0.460457,-0.731588,0.278981,0.0908384,0.0468023,-0.0776036,-3.4188,9.70335,-3.02015,0.0992821,-0.484472,0.281122,19.79,100.001,0.024999,0.136759,0.0143993,-0.0839465,-0.0904653,0.240762,-0.0684454,0.18401,0.00105916,0.538274,-0.710115,-0.0359751,-10.6986,0.058433,0.819508,-0.805744,-0.710115,-0.0359751,-0.904806,
1.27839,-121.934,-20.7963,-76.0036,-0.418244,0.460457,-0.731588,0.278981,0.0908384,0.0468023,-0.0776036,-3.4188,9.70335,-3.02015,0.0992821,-0.484472,0.281122,19.79,100.001,0.024999,0.136759,0.0143993,-0.0839465,-0.0904653,0.240762,-0.0684454,0.18401,0.00105916,0.538274,-0.710115,-0.0359751,-10.6986,0.058433,0.819508,-0.805744,-0.710115,-0.0359751,-0.904806,
1.30365,-122.413,-20.9154,-75.6075,-0.416013,0.459174,-0.734511,0.27674,0.0756374,0.14967,-0.0867451,-3.55017,9.61478,-2.98246,0.0980885,-0.479547,0.288777,19.79,100.013,0.024999,0.110281,0.227977,-0.0884004,-0.0904323,0.243261,-0.0754232,0.189014,-0.0017707,0.535957,-0.567603,0.0369503,-10.6592,-0.0539131,0.753479,-0.708504,-0.567603,0.0369503,-0.865492,
1.32886,-122.413,-20.9154,-75.6075,-0.416013,0.459174,-0.734511,0.27674,0.0756374,0.14967,-0.0867451,-3.55017,9.61478,-2.98246,0.0980885,-0.479547,0.288777,19.79,100.013,0.024999,0.110281,0.227977,-0.0884004,-0.0904323,0.243261,-0.0754232,0.189014,-0.0017707,0.535957,-0.567603,0.0369503,-10.6592,-0.0539131,0.753479,-0.708504,-0.567603,0.0369503,-0.865492,
1.35417,-122.667,-21.0336,-75.3453,-0.415013,0.457926,-0.736341,0.275445,0.0445864,0.00222072,-0.0175884,-2.08413,10.0428,-1.89936,0.0992333,-0.477077,0.292668,19.79,100.013,0.025,0.074413,0.0350591,-0.0272398,-0.0563554,0.248939,-0.0460528,0.19052,-0.00382587,0.535529,-0.333418,-1.82282,-10.2653,1.43099,1.199,0.413297,-0.333418,-1.82282,-0.47151,
1.37943,-122.072,-21.0778,-75.3038,-0.417523,0.455318,-0.735131,0.279182,0.126601,-0.316823,0.060888,-2.89204,9.12648,-3.19587,0.101554,-0.477075,0.291453,19.795,100.001,0.024999,0.163676,-0.397753,0.105045,-0.0637852,0.23178,-0.0768889,0.188258,-0.00256301,0.536107,-1.06529,-0.23863,-10.0339,0.630137,0.286974,-0.877499,-1.06529,-0.23863,-0.240115,
1.40466,-122.072,-21.0778,-75.3038,-0.417523,0.455318,-0.735131,0.279182,0.126601,-0.316823,0.060888,-2.89204,9.12648,-3.19587,0.101554,-0.477075,0.291453,19.795,100.001,0.024999,0.163676,-0.397753,0.105045,-0.0637852,0.23178,-0.0768889,0.188258,-0.00256301,0.536107,-1.06529,-0.23863,-10.0339,0.630137,0.286974,-0.877499,-1.06529,-0.23863,-0.240115,
1.42987,-121.743,-21.0453,-75.2832,-0.418601,0.45412,-0.734361,0.281535,0.0734887,-0.126861,0.0871074,-2.55289,9.42,-2.39561,0.10033,-0.469747,0.291255,19.79,100.001,0.025,0.141473,-0.294712,0.13884,-0.0697638,0.230389,-0.0710342,0.18863,-0.00370803,0.529115,-0.518126,-0.982055,-9.98798,0.964106,0.579399,-0.0735502,-0.518126,-0.982055,-0.194233,
1.45512,-121.743,-21.0453,-75.2832,-0.418601,0.45412,-0.734361,0.281535,0.0734887,-0.126861,0.0871074,-2.55289,9.42,-2.39561,0.10033,-0.469747,0.291255,19.79,100.001,0.025,0.141473,-0.294712,0.13884,-0.0697638,0.230389,-0.0710342,0.18863,-0.00370803,0.529115,-0.518126,-0.982055,-9.98798,0.964106,0.579399,-0.0735502,-0.518126,-0.982055,-0.194233,
1.48037,-120.829,-20.9203,-75.3963,-0.421817,0.452012,-0.731458,0.28762,0.0260514,-0.216964,0.130954,-3.27027,9.61528,-2.42983,0.104912,-0.462398,0.29127,19.8,100.005,0.025,0.106529,-0.497742,0.212107,-0.0719109,0.242982,-0.0489712,0.187019,-0.00913247,0.52402,-0.186618,-0.455125,-10.4312,0.226764,0.762703,-0.123296,-0.186618,-0.455125,-0.637475,
1.50561,-120.829,-20.9203,-75.3963,-0.421817,0.452012,-0.731458,0.28762,0.0260514,-0.216964,0.130954,-3.27027,9.61528,-2.42983,0.104912,-0.462398,0.29127,19.8,100.005,0.025,0.106529,-0.497742,0.212107,-0.0719109,0.242982,-0.0489712,0.187019,-0.00913247,0.52402,-0.186618,-0.455125,-10.4312,0.226764,0.762703,-0.123296,-0.186618,-0.455125,-0.637475,
1.53087,-120.553,-20.5984,-75.5346,-0.421511,0.453227,-0.729726,0.290539,0.0513011,-0.27392,0.132737,-2.66109,10.1324,-2.69844,0.103854,-0.474629,0.290186,19.81,100.005,0.025,0.0161641,-0.186782,0.216797,-0.0731827,0.248253,-0.0731769,0.185613,-0.00508229,0.534591,-0.679429,-0.989979,-10.7511,0.784505,1.25539,-0.408403,-0.679429,-0.989979,-0.957374,
1.55613,-120.083,-20.4831,-75.6359,-0.423,0.452627,-0.727951,0.293747,0.00866431,-0.179672,0.174627,-2.06307,10.5249,-2.52418,0.101477,-0.468533,0.288671,19.805,100.013,0.024999,0.0661125,-0.402752,0.25021,-0.0598141,0.260139,-0.0651186,0.185925,-0.00504895,0.527786,-0.786058,-1.68766,-10.8598,1.36407,1.63714,-0.248124,-0.786058,-1.68766,-1.06603,
1.58141,-120.083,-20.4831,-75.6359,-0.423,0.452627,-0.727951,0.293747,0.00866431,-0.179672,0.174627,-2.06307,10.5249,-2.52418,0.101477,-0.468533,0.288671,19.805,100.013,0.024999,0.0661125,-0.402752,0.25021,-0.0598141,0.260139,-0.0651186,0.185925,-0.00504895,0.527786,-0.786058,-1.68766,-10.8598,1.36407,1.63714,-0.248124,-0.786058,-1.68766,-1.06603,
1.60665,-120.457,-19.6832,-75.9351,-0.417952,0.459245,-0.726448,0.29442,-0.242867,0.341267,0.290916,-1.67271,10.4133,-1.80262,0.0956819,-0.469766,0.289784,19.805,100.017,0.024999,-0.297321,0.427612,0.416728,-0.0424962,0.262235,-0.0462108,0.188054,-0.0095249,0.527593,-0.326862,-2.09876,-10.4868,1.62601,1.46829,0.438386,-0.326862,-2.09876,-0.69307,
1.63727,-120.757,-19.1281,-76.1858,-0.414365,0.464226,-0.725313,0.294477,-0.233568,0.218697,0.355901,-1.167,10.6125,-2.45919,0.0897702,-0.457568,0.289312,19.79,100.013,0.025,-0.347711,0.403435,0.499834,-0.0347948,0.261132,-0.0560448,0.190201,-0.0161144,0.514483,-1.13612,-2.19445,-10.6738,2.04223,1.62717,-0.249811,-1.13612,-2.19445,-0.880013,
1.66262,-120.881,-18.5093,-76.4813,-0.411249,0.469083,-0.723407,0.295835,-0.24536,0.183811,0.427923,-1.99332,9.97491,-1.87326,0.0806194,-0.474732,0.284132,19.79,100.013,0.025,-0.332557,0.254486,0.603112,-0.0448114,0.254832,-0.0541852,0.188646,-0.00659134,0.526279,-0.243406,-1.40144,-10.2449,1.11579,0.945085,0.297729,-0.243406,-1.40144,-0.451155,
1.68798,-121.173,-17.0465,-77.285,-0.404129,0.481107,-0.718316,0.298726,-0.384469,0.32691,0.495287,-3.09001,9.4971,-2.00987,0.0713234,-0.474783,0.279891,19.81,100.005,0.024999,-0.499118,0.357284,0.733238,-0.0670372,0.242616,-0.0414761,0.188521,-0.0139618,0.522599,0.167327,0.0259287,-10.186,-0.218997,0.363243,0.0510464,0.167327,0.0259287,-0.392225,
1.71332,-121.173,-17.0465,-77.285,-0.404129,0.481107,-0.718316,0.298726,-0.384469,0.32691,0.495287,-3.09001,9.4971,-2.00987,0.0713234,-0.474783,0.279891,19.81,100.005,0.024999,-0.499118,0.357284,0.733238,-0.0670372,0.242616,-0.0414761,0.188521,-0.0139618,0.522599,0.167327,0.0259287,-10.186,-0.218997,0.363243,0.0510464,0.167327,0.0259287,-0.392225,
1.73882,-121.698,-16.2422,-77.7503,-0.398705,0.489063,-0.716279,0.297988,-0.450616,0.535279,0.453273,-3.85138,8.79959,-2.08166,0.0620539,-0.478519,0.271826,19.81,100.005,0.025001,-0.612917,0.659615,0.706482,-0.0945872,0.224529,-0.0554749,0.185524,-0.0119122,0.521689,0.471927,1.08244,-9.7573,-1.11209,-0.389185,-0.0866343,0.471927,1.08244,0.0364466,
1.76402,-121.698,-16.2422,-77.7503,-0.398705,0.489063,-0.716279,0.297988,-0.450616,0.535279,0.453273,-3.85138,8.79959,-2.08166,0.0620539,-0.478519,0.271826,19.81,100.005,0.025001,-0.612917,0.659615,0.706482,-0.0945872,0.224529,-0.0554749,0.185524,-0.0119122,0.521689,0.471927,1.08244,-9.7573,-1.11209,-0.389185,-0.0866343,0.471927,1.08244,0.0364466,
1.78915,-122.622,-14.8918,-78.7528,-0.389862,0.503748,-0.711849,0.295833,-0.41575,0.210204,0.35116,-4.34345,7.88427,-1.2027,0.0515947,-0.478579,0.266241,19.79,100.001,0.025001,-0.596429,0.389166,0.564905,-0.0994692,0.202047,-0.0296445,0.186661,-0.0196063,0.517066,1.46068,1.61774,-8.81606,-1.82651,-1.39876,0.643327,1.46068,1.61774,0.977681,
1.81428,-123.598,-13.9041,-80.0192,-0.383289,0.518623,-0.706828,0.290713,-0.590578,0.458052,0.224151,-4.32891,8.25804,-0.843816,0.0376,-0.473806,0.252625,19.79,100.001,0.024999,-0.821562,0.665175,0.38203,-0.117029,0.207,-0.0217029,0.186511,-0.0204749,0.504499,1.72431,1.51079,-9.07695,-1.97549,-1.10486,0.803883,1.72431,1.51079,0.716798,
1.83944,-123.598,-13.9041,-80.0192,-0.383289,0.518623,-0.706828,0.290713,-0.590578,0.458052,0.224151,-4.32891,8.25804,-0.843816,0.0376,-0.473806,0.252625,19.79,100.001,0.024999,-0.821562,0.665175,0.38203,-0.117029,0.207,-0.0217029,0.186511,-0.0204749,0.504499,1.72431,1.51079,-9.07695,-1.97549,-1.10486,0.803883,1.72431,1.51079,0.716798,
1.86457,-124.129,-13.1719,-81.5378,-0.380642,0.532419,-0.699772,0.286289,-0.544483,0.00556861,0.245964,-1.76896,9.0939,-0.930255,0.0343035,-0.49708,0.243887,19.81,100.017,0.025,-0.797962,0.12236,0.364216,-0.0483019,0.223544,-0.0241173,0.187844,-0.0224419,0.521495,0.144963,-0.531309,-9.29464,0.462772,-0.338362,0.473035,0.144963,-0.531309,0.499104,
1.88972,-124.129,-13.1719,-81.5378,-0.380642,0.532419,-0.699772,0.286289,-0.544483,0.00556861,0.245964,-1.76896,9.0939,-0.930255,0.0343035,-0.49708,0.243887,19.81,100.017,0.025,-0.797962,0.12236,0.364216,-0.0483019,0.223544,-0.0241173,0.187844,-0.0224419,0.521495,0.144963,-0.531309,-9.29464,0.462772,-0.338362,0.473035,0.144963,-0.531309,0.499104,
1.91484,-124.075,-12.8259,-82.3174,-0.380944,0.538244,-0.695302,0.285886,-0.536573,0.0392164,0.238912,-2.42063,8.75311,-1.45197,0.0296104,-0.493499,0.230637,19.795,100.001,0.024999,-0.764425,-0.0089177,0.380301,-0.0570183,0.222913,-0.0323373,0.183164,-0.0194163,0.513503,-0.00328255,0.474856,-9.18472,-0.246521,-0.710553,-0.175356,-0.00328255,0.474856,0.609023,
1.93997,-124.075,-12.8259,-82.3174,-0.380944,0.538244,-0.695302,0.285886,-0.536573,0.0392164,0.238912,-2.42063,8.75311,-1.45197,0.0296104,-0.493499,0.230637,19.795,100.001,0.024999,-0.764425,-0.0089177,0.380301,-0.0570183,0.222913,-0.0323373,0.183164,-0.0194163,0.513503,-0.00328255,0.474856,-9.18472,-0.246521,-0.710553,-0.175356,-0.00328255,0.474856,0.609023,
1.9651,-124.601,-12.1714,-83.7383,-0.378397,0.550915,-0.688505,0.28155,-0.511677,0.238035,0.180613,-2.2211,8.68343,-1.09212,0.0203724,-0.5009,0.22265,19.79,100.001,0.024999,-0.744281,0.323998,0.30606,-0.0485861,0.217567,-0.0287748,0.188417,-0.0204225,0.514753,0.0712224,0.347154,-9.02233,-0.156222,-0.833046,-0.0479344,0.0712224,0.347154,0.771414,
1.99026,-126.156,-11.6727,-85.0514,-0.371272,0.565613,-0.684819,0.270669,-0.542159,0.530202,0.0757265,-1.48659,8.8535,-1.48342,0.0134225,-0.504641,0.212071,19.81,100.005,0.025001,-0.827496,0.879555,0.167197,-0.0354136,0.225475,-0.0338989,0.189883,-0.0244668,0.512994,-0.785846,0.135044,-9.06417,0.494881,-0.701953,-0.656068,-0.785846,0.135044,0.729575,
2.01538,-126.156,-11.6727,-85.0514,-0.371272,0.565613,-0.684819,0.270669,-0.542159,0.530202,0.0757265,-1.48659,8.8535,-1.48342,0.0134225,-0.504641,0.212071,19.81,100.005,0.025001,-0.827496,0.879555,0.167197,-0.0354136,0.225475,-0.0338989,0.189883,-0.0244668,0.512994,-0.785846,0.135044,-9.06417,0.494881,-0.701953,-0.656068,-0.785846,0.135044,0.729575,
2.04051,-126.514,-11.6255,-85.9214,-0.371276,0.572119,-0.681241,0.265978,-0.203512,0.0494932,-0.0594397,-3.63055,7.32225,-2.2305,0.0088043,-0.509605,0.200302,19.79,100.001,0.024999,-0.341473,0.00345822,-0.0109169,-0.081136,0.188672,-0.0618965,0.188972,-0.0196135,0.513615,-0.148384,2.6634,-8.04087,-1.65697,-2.24629,-1.5482,-0.148384,2.6634,1.75287,
2.06566,-126.514,-11.6255,-85.9214,-0.371276,0.572119,-0.681241,0.265978,-0.203512,0.0494932,-0.0594397,-3.63055,7.32225,-2.2305,0.0088043,-0.509605,0.200302,19.79,100.001,0.024999,-0.341473,0.00345822,-0.0109169,-0.081136,0.188672,-0.0618965,0.188972,-0.0196135,0.513615,-0.148384,2.6634,-8.04087,-1.65697,-2.24629,-1.5482,-0.148384,2.6634,1.75287,
2.09079,-126.871,-11.7539,-86.1286,-0.370667,0.574069,-0.681292,0.262474,-0.190113,0.349784,-0.132905,-3.70862,6.74432,-1.63082,0.00881314,-0.510835,0.199028,19.79,100.001,0.025001,-0.276789,0.333342,-0.121841,-0.094536,0.173437,-0.0448488,0.190026,-0.0201059,0.513933,0.405248,2.49319,-7.45111,-1.71355,-2.82219,-0.983438,0.405248,2.49319,2.34264,
2.116,-127.925,-12.1407,-86.145,-0.367505,0.57626,-0.68437,0.253971,0.0197953,0.369414,-0.16786,-2.75316,7.2605,-2.24095,0.0122449,-0.504712,0.199027,19.79,100.013,0.025,-0.0284548,0.464599,-0.205516,-0.0675232,0.174763,-0.0561392,0.189339,-0.0248757,0.507964,-0.680209,1.9706,-7.80837,-0.693413,-2.29253,-1.59722,-0.680209,1.9706,1.98537,
2.1412,-127.925,-12.1407,-86.145,-0.367505,0.57626,-0.68437,0.253971,0.0197953,0.369414,-0.16786,-2.75316,7.2605,-2.24095,0.0122449,-0.504712,0.199027,19.79,100.013,0.025,-0.0284548,0.464599,-0.205516,-0.0675232,0.174763,-0.0561392,0.189339,-0.0248757,0.507964,-0.680209,1.9706,-7.80837,-0.693413,-2.29253,-1.59722,-0.680209,1.9706,1.98537,
2.16643,-129.311,-12.5674,-85.5302,-0.361522,0.57556,-0.691309,0.245203,0.249769,0.236783,-0.178222,-2.4885,7.78429,-1.29532,0.0111012,-0.507174,0.196435,19.8,100.005,0.025,0.247857,0.591256,-0.235148,-0.0674554,0.191562,-0.0390277,0.185888,-0.019712,0.510874,-0.0747182,0.98956,-8.21467,-0.357504,-1.74573,-0.550354,-0.0747182,0.98956,1.57907,
2.19171,-129.311,-12.5674,-85.5302,-0.361522,0.57556,-0.691309,0.245203,0.249769,0.236783,-0.178222,-2.4885,7.78429,-1.29532,0.0111012,-0.507174,0.196435,19.8,100.005,0.025,0.247857,0.591256,-0.235148,-0.0674554,0.191562,-0.0390277,0.185888,-0.019712,0.510874,-0.0747182,0.98956,-8.21467,-0.357504,-1.74573,-0.550354,-0.0747182,0.98956,1.57907,
2.21705,-129.309,-12.8098,-85.0381,-0.36181,0.571772,-0.694222,0.245409,0.362002,-0.0346276,-0.166874,-3.32055,7.3348,-0.141692,0.0122708,-0.507135,0.202978,19.79,100.001,0.025,0.495332,-0.0277602,-0.211202,-0.076239,0.184418,-0.0145426,0.188375,-0.0198907,0.5125,1.40478,0.937145,-7.87361,-1.14912,-2.17941,0.684316,1.40478,0.937145,1.92014,
2.24225,-129.309,-12.8098,-85.0381,-0.36181,0.571772,-0.694222,0.245409,0.362002,-0.0346276,-0.166874,-3.32055,7.3348,-0.141692,0.0122708,-0.507135,0.202978,19.79,100.001,0.025,0.495332,-0.0277602,-0.211202,-0.076239,0.184418,-0.0145426,0.188375,-0.0198907,0.5125,1.40478,0.937145,-7.87361,-1.14912,-2.17941,0.684316,1.40478,0.937145,1.92014,
2.26749,-130.327,-13.1376,-84.0465,-0.356456,0.567834,-0.701906,0.240481,0.240306,0.412755,-0.114909,-1.79334,10.4304,-0.329635,0.0111103,-0.50587,0.212011,19.79,100.001,0.024999,0.337619,0.6297,-0.161884,-0.0540488,0.247349,0.00278979,0.190997,-0.0197623,0.513913,0.174032,-0.96009,-10.5435,0.432686,0.944406,0.659603,0.174032,-0.96009,-0.749757,
2.29272,-131.343,-13.1646,-83.0435,-0.349497,0.564699,-0.709026,0.237168,0.270647,0.351849,0.00208759,-1.88851,10.2658,-1.027,0.0111063,-0.504618,0.217185,19.795,100.001,0.025,0.395822,0.483919,0.00487142,-0.0431414,0.260613,-0.0267636,0.188142,-0.0200108,0.515883,-0.168949,-0.531004,-10.4737,0.342001,0.79966,0.128013,-0.168949,-0.531004,-0.679926,
2.31793,-131.343,-13.1646,-83.0435,-0.349497,0.564699,-0.709026,0.237168,0.270647,0.351849,0.00208759,-1.88851,10.2658,-1.027,0.0111063,-0.504618,0.217185,19.795,100.001,0.025,0.395822,0.483919,0.00487142,-0.0431414,0.260613,-0.0267636,0.188142,-0.0200108,0.515883,-0.168949,-0.531004,-10.4737,0.342001,0.79966,0.128013,-0.168949,-0.531004,-0.679926,
2.3431,-131.53,-12.9809,-82.0418,-0.345455,0.559647,-0.714022,0.24006,0.374746,-0.113131,0.0913653,-2.20763,9.84694,-1.30586,0.00644769,-0.502153,0.223463,19.79,100.001,0.025,0.53069,-0.110116,0.143399,-0.0515417,0.250624,-0.0329206,0.188138,-0.0165097,0.516205,-0.000604868,-0.106299,-10.175,-0.00769816,0.395388,0.0154317,-0.000604868,-0.106299,-0.381221,
2.36832,-131.53,-12.9809,-82.0418,-0.345455,0.559647,-0.714022,0.24006,0.374746,-0.113131,0.0913653,-2.20763,9.84694,-1.30586,0.00644769,-0.502153,0.223463,19.79,100.001,0.025,0.53069,-0.110116,0.143399,-0.0515417,0.250624,-0.0329206,0.188138,-0.0165097,0.516205,-0.000604868,-0.106299,-10.175,-0.00769816,0.395388,0.0154317,-0.000604868,-0.106299,-0.381221,
2.39353,-131.471,-12.8485,-81.5809,-0.344014,0.557028,-0.715925,0.24254,0.291675,0.0414894,0.0966302,-2.53621,9.65797,-1.06373,0.00876321,-0.500909,0.226123,19.8,100.013,0.025,0.47698,-0.043534,0.169364,-0.0590653,0.243789,-0.0281819,0.184842,-0.017887,0.517331,0.478728,-0.00465953,-10.0305,-0.358339,0.212342,0.334307,0.478728,-0.00465953,-0.236758,
2.41873,-131.472,-12.6133,-81.0172,-0.341458,0.554276,-0.718272,0.2455,0.116103,-0.0491733,0.0788339,-1.72361,8.53885,0.00538903,0.00758346,-0.49719,0.236402,19.81,100.005,0.025001,0.22369,-0.0384407,0.140753,-0.0473645,0.217558,-0.00611226,0.188249,-0.0223805,0.516917,0.897289,-1.00603,-8.60614,0.415047,-0.901315,1.49767,0.897289,-1.00603,1.18761,
2.44396,-131.472,-12.6133,-81.0172,-0.341458,0.554276,-0.718272,0.2455,0.116103,-0.0491733,0.0788339,-1.72361,8.53885,0.00538903,0.00758346,-0.49719,0.236402,19.81,100.005,0.025001,0.22369,-0.0384407,0.140753,-0.0473645,0.217558,-0.00611226,0.188249,-0.0223805,0.516917,0.897289,-1.00603,-8.60614,0.415047,-0.901315,1.49767,0.897289,-1.00603,1.18761,
2.46923,-131.329,-12.4232,-81.0691,-0.341167,0.554798,-0.717398,0.247273,-0.0782968,-0.105439,0.059948,-2.17092,8.55211,-0.377956,0.00290334,-0.493555,0.233555,19.8,100.017,0.025001,-0.0728743,-0.0861151,0.125587,-0.0548536,0.215708,-0.0115166,0.188267,-0.0192725,0.512188,0.90807,-0.412459,-8.77494,-0.0639817,-0.896366,1.10685,0.90807,-0.412459,1.01881,
2.49464,-131.329,-12.4232,-81.0691,-0.341167,0.554798,-0.717398,0.247273,-0.0782968,-0.105439,0.059948,-2.17092,8.55211,-0.377956,0.00290334,-0.493555,0.233555,19.8,100.017,0.025001,-0.0728743,-0.0861151,0.125587,-0.0548536,0.215708,-0.0115166,0.188267,-0.0192725,0.512188,0.90807,-0.412459,-8.77494,-0.0639817,-0.896366,1.10685,0.90807,-0.412459,1.01881,
2.51984,-131.232,-12.3747,-81.6198,-0.342547,0.558108,-0.714433,0.246502,-0.259711,0.021097,-0.0171708,-2.68196,9.33294,-0.161055,0.000605537,-0.497255,0.228347,19.79,100.001,0.025,-0.331596,0.0235074,0.0323865,-0.0676269,0.221483,-0.0081283,0.18919,-0.0169285,0.513153,1.32223,-0.31328,-9.61646,-0.583125,-0.131124,1.23314,1.32223,-0.31328,0.177289,
2.54505,-131.232,-12.3747,-81.6198,-0.342547,0.558108,-0.714433,0.246502,-0.259711,0.021097,-0.0171708,-2.68196,9.33294,-0.161055,0.000605537,-0.497255,0.228347,19.79,100.001,0.025,-0.331596,0.0235074,0.0323865,-0.0676269,0.221483,-0.0081283,0.18919,-0.0169285,0.513153,1.32223,-0.31328,-9.61646,-0.583125,-0.131124,1.23314,1.32223,-0.31328,0.177289,
2.57032,-131.081,-12.4646,-82.0165,-0.344647,0.559831,-0.712327,0.245759,-0.238885,-0.229495,-0.0683684,-2.74565,10.6743,-1.14423,0.00179415,-0.502201,0.216792,19.805,100.001,0.024999,-0.361118,-0.163847,-0.0378361,-0.0666795,0.255993,-0.0187975,0.182911,-0.0107545,0.515399,0.503254,0.0455842,-11.0695,-0.631806,1.20408,0.183938,0.503254,0.0455842,-1.27572,
2.59555,-130.095,-12.9273,-82.8325,-0.353842,0.56035,-0.707019,0.246837,-0.1438,-0.423747,-0.144168,-2.36664,10.7343,-3.61745,0.00993251,-0.503405,0.215816,19.795,100.013,0.024999,-0.26795,-0.557893,-0.16151,-0.0552147,0.265497,-0.0696912,0.185368,-0.0147784,0.515279,-1.83508,1.31365,-11.3499,-0.175626,1.2634,-2.42646,-1.83508,1.31365,-1.55612,
2.62071,-130.095,-12.9273,-82.8325,-0.353842,0.56035,-0.707019,0.246837,-0.1438,-0.423747,-0.144168,-2.36664,10.7343,-3.61745,0.00993251,-0.503405,0.215816,19.795,100.013,0.024999,-0.26795,-0.557893,-0.16151,-0.0552147,0.265497,-0.0696912,0.185368,-0.0147784,0.515279,-1.83508,1.31365,-11.3499,-0.175626,1.2634,-2.42646,-1.83508,1.31365,-1.55612,
2.64595,-129.332,-13.4064,-83.062,-0.360741,0.557776,-0.705095,0.24818,0.0297272,0.0405701,-0.10321,-1.68381,10.5138,-3.60998,0.018063,-0.502105,0.225189,19.79,100.001,0.025,0.0364579,-0.22043,-0.1414,-0.0395248,0.270757,-0.0997834,0.192098,-0.0225675,0.515494,-2.34915,0.783374,-10.967,0.586925,1.05665,-2.45919,-2.34915,0.783374,-1.17321,
2.67115,-129.332,-13.4064,-83.062,-0.360741,0.557776,-0.705095,0.24818,0.0297272,0.0405701,-0.10321,-1.68381,10.5138,-3.60998,0.018063,-0.502105,0.225189,19.79,100.001,0.025,0.0364579,-0.22043,-0.1414,-0.0395248,0.270757,-0.0997834,0.192098,-0.0225675,0.515494,-2.34915,0.783374,-10.967,0.586925,1.05665,-2.45919,-2.34915,0.783374,-1.17321,
2.69637,-130.342,-13.4715,-82.7385,-0.355493,0.558717,-0.708947,0.2426,0.0877985,0.265829,-0.0434876,-2.25413,9.96437,-2.06198,0.0145354,-0.497236,0.223658,19.7825,99.996,0.025,0.0692843,0.525423,-0.0407139,-0.0450444,0.254736,-0.047155,0.190698,-0.0211104,0.510555,-0.709953,0.378223,-10.3911,0.0274433,0.516476,-0.858128,-0.709953,0.378223,-0.597325,
2.72158,-130.499,-13.521,-82.4876,-0.354475,0.557484,-0.710585,0.24213,0.176917,0.0179445,-0.0541142,-3.11427,9.48917,-1.65954,0.0134159,-0.502127,0.223718,19.79,100.001,0.025,0.216786,0.13955,-0.0386997,-0.0702391,0.240715,-0.050929,0.190297,-0.0176237,0.515594,0.197338,0.854165,-10.0861,-0.824465,0.0486006,-0.414584,0.197338,0.854165,-0.292311,
2.74684,-130.499,-13.521,-82.4876,-0.354475,0.557484,-0.710585,0.24213,0.176917,0.0179445,-0.0541142,-3.11427,9.48917,-1.65954,0.0134159,-0.502127,0.223718,19.79,100.001,0.025,0.216786,0.13955,-0.0386997,-0.0702391,0.240715,-0.050929,0.190297,-0.0176237,0.515594,0.197338,0.854165,-10.0861,-0.824465,0.0486006,-0.414584,0.197338,0.854165,-0.292311,
2.77219,-130.323,-13.6366,-82.0894,-0.355139,0.554078,-0.712337,0.243825,0.139953,-0.164888,0.0120172,-1.66682,8.76078,-0.208641,0.0145346,-0.495974,0.231433,19.8,100.013,0.025001,0.200714,-0.155764,0.0130504,-0.0461005,0.221889,0.00289905,0.193391,-0.0209049,0.511787,0.481677,-0.976415,-8.85369,0.642173,-0.666316,1.10125,0.481677,-0.976415,0.940061,
2.79739,-130.323,-13.6366,-82.0894,-0.355139,0.554078,-0.712337,0.243825,0.139953,-0.164888,0.0120172,-1.66682,8.76078,-0.208641,0.0145346,-0.495974,0.231433,19.8,100.013,0.025001,0.200714,-0.155764,0.0130504,-0.0461005,0.221889,0.00289905,0.193391,-0.0209049,0.511787,0.481677,-0.976415,-8.85369,0.642173,-0.666316,1.10125,0.481677,-0.976415,0.940061,
2.82262,-129.56,-13.5772,-81.8597,-0.357985,0.550479,-0.711701,0.249603,0.0828291,-0.167096,0.0748266,-2.86503,8.18782,0.698634,0.0168613,-0.497217,0.226344,19.79,100.001,0.025001,0.185108,-0.349486,0.130078,-0.0737945,0.205312,-0.000146339,0.186408,-0.0156163,0.513565,2.00367,-0.480819,-8.45523,-0.5659,-1.23632,2.04665,2.00367,-0.480819,1.33851,
2.84784,-129.56,-13.5772,-81.8597,-0.357985,0.550479,-0.711701,0.249603,0.0828291,-0.167096,0.0748266,-2.86503,8.18782,0.698634,0.0168613,-0.497217,0.226344,19.79,100.001,0.025001,0.185108,-0.349486,0.130078,-0.0737945,0.205312,-0.000146339,0.186408,-0.0156163,0.513565,2.00367,-0.480819,-8.45523,-0.5659,-1.23632,2.04665,2.00367,-0.480819,1.33851,
2.87324,-128.951,-13.4286,-81.9752,-0.360328,0.549792,-0.709551,0.253831,0.0135726,-0.335263,0.0777422,-2.52139,7.89434,-1.42056,0.0191994,-0.498412,0.230355,19.79,100.001,0.025001,0.00769573,-0.4025,0.144401,-0.0686087,0.200212,-0.0195961,0.188287,-0.0192358,0.515776,0.13468,0.651119,-8.38176,-0.246964,-1.53837,-0.0907192,0.13468,0.651119,1.41199,
2.89874,-128.361,-13.3736,-82.072,-0.363061,0.548719,-0.707674,0.257471,0.0348535,-0.416777,0.110148,-1.26875,7.97203,-1.513,0.0180469,-0.499645,0.229038,19.79,100.001,0.024999,0.0427202,-0.565697,0.164193,-0.0418965,0.196473,-0.0378868,0.188514,-0.0163033,0.516358,-0.710166,-0.254399,-8.17821,0.996532,-1.46507,-0.198788,-0.710166,-0.254399,1.61554,
2.92397,-128.361,-13.3736,-82.072,-0.363061,0.548719,-0.707674,0.257471,0.0348535,-0.416777,0.110148,-1.26875,7.97203,-1.513,0.0180469,-0.499645,0.229038,19.79,100.001,0.024999,0.0427202,-0.565697,0.164193,-0.0418965,0.196473,-0.0378868,0.188514,-0.0163033,0.516358,-0.710166,-0.254399,-8.17821,0.996532,-1.46507,-0.198788,-0.710166,-0.254399,1.61554,
2.94918,-127.836,-12.9331,-82.276,-0.363582,0.54983,-0.704704,0.262465,-0.09482,0.138335,0.227697,-1.0187,8.79395,-2.09277,0.0145435,-0.497204,0.230159,19.795,100.005,0.025,-0.0985643,0.0176816,0.326953,-0.0270791,0.214686,-0.0430213,0.19054,-0.0175462,0.513598,-1.33031,-0.258835,-8.99524,1.17326,-0.664747,-0.809875,-1.33031,-0.258835,0.798511,
2.9744,-127.836,-12.9331,-82.276,-0.363582,0.54983,-0.704704,0.262465,-0.09482,0.138335,0.227697,-1.0187,8.79395,-2.09277,0.0145435,-0.497204,0.230159,19.795,100.005,0.025,-0.0985643,0.0176816,0.326953,-0.0270791,0.214686,-0.0430213,0.19054,-0.0175462,0.513598,-1.33031,-0.258835,-8.99524,1.17326,-0.664747,-0.809875,-1.33031,-0.258835,0.798511,
2.99963,-127.615,-12.2799,-82.3661,-0.361201,0.551935,-0.702542,0.267089,0.0553255,-0.266443,0.222289,-1.65041,10.238,-0.868945,0.0122804,-0.504556,0.227628,19.79,100.013,0.025,0.0423309,-0.246363,0.361331,-0.0405584,0.257157,-0.031909,0.187138,-0.0169521,0.520801,0.0471572,-0.756039,-10.3789,0.432591,0.753162,0.402323,0.0471572,-0.756039,-0.585177,
3.02488,-127.008,-12.0647,-82.385,-0.362967,0.550873,-0.700612,0.271915,0.0811176,-0.446104,0.189024,-2.10273,10.2891,-0.466266,0.0122135,-0.495976,0.232648,19.79,99.989,0.025,0.112166,-0.565306,0.321755,-0.0473118,0.255686,-0.0116762,0.190197,-0.0215798,0.513445,0.666618,-0.612995,-10.473,-0.0556765,0.796113,0.802891,0.666618,-0.612995,-0.679255,
3.0502,-127.008,-12.0647,-82.385,-0.362967,0.550873,-0.700612,0.271915,0.0811176,-0.446104,0.189024,-2.10273,10.2891,-0.466266,0.0122135,-0.495976,0.232648,19.79,99.989,0.025,0.112166,-0.565306,0.321755,-0.0473118,0.255686,-0.0116762,0.190197,-0.0215798,0.513445,0.666618,-0.612995,-10.473,-0.0556765,0.796113,0.802891,0.666618,-0.612995,-0.679255,
3.07541,-125.778,-11.7874,-82.4745,-0.367542,0.548462,-0.69667,0.28063,0.0517275,-0.305506,0.132055,-1.79234,10.7884,-1.30298,0.00879392,-0.50331,0.233975,19.79,100.001,0.025001,0.0709206,-0.517819,0.226351,-0.0486779,0.275448,-0.0277764,0.192928,-0.0162863,0.520246,-0.173669,-0.448263,-11.0032,0.208336,1.2838,-0.0473634,-0.173669,-0.448263,-1.20941,
3.10061,-125.778,-11.7874,-82.4745,-0.367542,0.548462,-0.69667,0.28063,0.0517275,-0.305506,0.132055,-1.79234,10.7884,-1.30298,0.00879392,-0.50331,0.233975,19.79,100.001,0.025001,0.0709206,-0.517819,0.226351,-0.0486779,0.275448,-0.0277764,0.192928,-0.0162863,0.520246,-0.173669,-0.448263,-11.0032,0.208336,1.2838,-0.0473634,-0.173669,-0.448263,-1.20941,
3.12583,-124.503,-11.5509,-82.1825,-0.37158,0.543412,-0.694401,0.290583,0.300157,-0.467075,0.149956,-2.29523,9.83196,-2.55641,0.0122184,-0.495953,0.236548,19.79,100.001,0.025001,0.381208,-0.710467,0.237236,-0.0546521,0.24893,-0.0585304,0.190133,-0.018012,0.515363,-0.855518,0.865546,-10.3436,-0.33415,0.325747,-1.25125,-0.855518,0.865546,-0.54984,
3.15102,-124.503,-11.5509,-82.1825,-0.37158,0.543412,-0.694401,0.290583,0.300157,-0.467075,0.149956,-2.29523,9.83196,-2.55641,0.0122184,-0.495953,0.236548,19.79,100.001,0.025001,0.381208,-0.710467,0.237236,-0.0546521,0.24893,-0.0585304,0.190133,-0.018012,0.515363,-0.855518,0.865546,-10.3436,-0.33415,0.325747,-1.25125,-0.855518,0.865546,-0.54984,
3.17622,-123.929,-11.1317,-81.3432,-0.369805,0.537961,-0.696012,0.299012,0.33425,0.0587528,0.187174,-2.9168,9.17726,-1.41572,0.0133042,-0.486138,0.242883,19.79,100.001,0.025001,0.491067,-0.0658244,0.294436,-0.0597356,0.234477,-0.0442198,0.186963,-0.021172,0.509996,0.581615,0.897316,-9.67423,-1.02598,-0.322753,0.0306523,0.581615,0.897316,0.11952,
3.20147,-124.058,-10.8773,-80.8621,-0.366526,0.536358,-0.698073,0.30112,0.309484,0.119028,0.13743,-3.8854,9.02084,-1.10413,0.00987136,-0.490995,0.250659,19.79,99.989,0.024999,0.459157,0.158539,0.262221,-0.0930921,0.227561,-0.0269481,0.190437,-0.020948,0.517009,1.46083,1.54949,-9.65174,-2.03726,-0.474887,0.423277,1.46083,1.54949,0.142005,
3.22667,-124.058,-10.8773,-80.8621,-0.366526,0.536358,-0.698073,0.30112,0.309484,0.119028,0.13743,-3.8854,9.02084,-1.10413,0.00987136,-0.490995,0.250659,19.79,99.989,0.024999,0.459157,0.158539,0.262221,-0.0930921,0.227561,-0.0269481,0.190437,-0.020948,0.517009,1.46083,1.54949,-9.65174,-2.03726,-0.474887,0.423277,1.46083,1.54949,0.142005,
3.25188,-124.467,-10.6344,-80.1099,-0.361269,0.533929,-0.70216,0.302284,0.196249,0.130749,0.0124593,-2.05139,9.56136,-1.25347,0.00521352,-0.488533,0.256937,19.79,100.013,0.024999,0.287006,0.246553,0.0733081,-0.0682436,0.234393,-0.0283096,0.191476,-0.0200487,0.517342,0.47069,-0.034204,-9.84766,-0.244039,0.0788727,0.399811,0.47069,-0.034204,-0.0539093,
3.27713,-124.467,-10.6344,-80.1099,-0.361269,0.533929,-0.70216,0.302284,0.196249,0.130749,0.0124593,-2.05139,9.56136,-1.25347,0.00521352,-0.488533,0.256937,19.79,100.013,0.024999,0.287006,0.246553,0.0733081,-0.0682436,0.234393,-0.0283096,0.191476,-0.0200487,0.517342,0.47069,-0.034204,-9.84766,-0.244039,0.0788727,0.399811,0.47069,-0.034204,-0.0539093,
3.30241,-123.865,-10.7258,-79.4323,-0.36277,0.527543,-0.703885,0.307641,0.282173,-0.242196,0.0170119,-1.62696,9.92276,-2.26991,0.0109946,-0.48356,0.270049,19.8025,100.005,0.025001,0.41993,-0.409782,0.0461276,-0.0329516,0.252257,-0.0532375,0.195208,-0.0263691,0.517761,-0.505789,-0.0150353,-10.2959,0.195744,0.463331,-0.505144,-0.505789,-0.0150353,-0.502109,
3.32762,-123.865,-10.7258,-79.4323,-0.36277,0.527543,-0.703885,0.307641,0.282173,-0.242196,0.0170119,-1.62696,9.92276,-2.26991,0.0109946,-0.48356,0.270049,19.8025,100.005,0.025001,0.41993,-0.409782,0.0461276,-0.0329516,0.252257,-0.0532375,0.195208,-0.0263691,0.517761,-0.505789,-0.0150353,-10.2959,0.195744,0.463331,-0.505144,-0.505789,-0.0150353,-0.502109,
3.35288,-123.781,-10.6927,-78.8537,-0.361412,0.523834,-0.706242,0.310163,0.177687,-0.0599817,0.00548348,-2.12619,9.04534,-0.988229,0.00982271,-0.482341,0.269979,19.7875,100.008,0.024999,0.262944,0.0165395,0.0495942,-0.0529089,0.227992,-0.0323218,0.191504,-0.0224279,0.518133,0.873904,-0.0946917,-9.30283,-0.309044,-0.39682,0.872179,0.873904,-0.0946917,0.490911,
3.3781,-123.565,-10.745,-78.679,-0.36222,0.521886,-0.706561,0.311776,0.111815,-0.155254,-0.0159528,-2.5589,8.88284,-0.144761,0.00979983,-0.479904,0.268628,19.79,100.001,0.025,0.218164,-0.223536,0.0206305,-0.0591978,0.224303,-0.0129708,0.189599,-0.0202708,0.515951,1.82395,-0.148288,-9.06229,-0.732976,-0.551967,1.7441,1.82395,-0.148288,0.731459,
3.40331,-123.565,-10.745,-78.679,-0.36222,0.521886,-0.706561,0.311776,0.111815,-0.155254,-0.0159528,-2.5589,8.88284,-0.144761,0.00979983,-0.479904,0.268628,19.79,100.001,0.025,0.218164,-0.223536,0.0206305,-0.0591978,0.224303,-0.0129708,0.189599,-0.0202708,0.515951,1.82395,-0.148288,-9.06229,-0.732976,-0.551967,1.7441,1.82395,-0.148288,0.731459,
3.42855,-123.196,-10.8346,-78.7813,-0.364686,0.521019,-0.705272,0.313264,-0.056977,-0.298372,0.0163311,-0.858157,9.97996,0.300906,0.0109468,-0.477428,0.27382,19.79,100.013,0.025,-0.070743,-0.251787,0.0373948,-0.023138,0.245668,0.00774799,0.194821,-0.0231507,0.514338,1.33179,-2.04996,-9.71857,0.982814,0.544603,2.17236,1.33179,-2.04996,0.0751762,
3.45407,-123.196,-10.8346,-78.7813,-0.364686,0.521019,-0.705272,0.313264,-0.056977,-0.298372,0.0163311,-0.858157,9.97996,0.300906,0.0109468,-0.477428,0.27382,19.79,100.013,0.025,-0.070743,-0.251787,0.0373948,-0.023138,0.245668,0.00774799,0.194821,-0.0231507,0.514338,1.33179,-2.04996,-9.71857,0.982814,0.544603,2.17236,1.33179,-2.04996,0.0751762,
3.47932,-121.369,-11.0229,-79.2298,-0.375263,0.517172,-0.698573,0.322036,-0.0316107,-0.734183,0.0889702,-0.771041,9.90483,-2.00262,0.0179381,-0.481105,0.267652,19.79,100.013,0.025,-0.0358034,-1.05304,0.135267,-0.0182709,0.248469,-0.041593,0.190595,-0.0197812,0.516433,-0.711153,-0.942814,-10.0656,1.10154,0.461105,-0.206229,-0.711153,-0.942814,-0.271836,
3.50458,-119.695,-10.97,-79.7479,-0.383985,0.514968,-0.691355,0.330744,-0.0848915,-0.417707,0.147341,-0.981698,9.7709,-2.16037,0.0261115,-0.485959,0.269354,19.79,100.001,0.025001,-0.11482,-0.683589,0.225802,-0.0219689,0.247729,-0.0548825,0.192013,-0.0237514,0.521495,-0.801249,-0.624105,-10.0035,0.881995,0.309619,-0.449133,-0.801249,-0.624105,-0.209745,
3.52979,-119.695,-10.97,-79.7479,-0.383985,0.514968,-0.691355,0.330744,-0.0848915,-0.417707,0.147341,-0.981698,9.7709,-2.16037,0.0261115,-0.485959,0.269354,19.79,100.001,0.025001,-0.11482,-0.683589,0.225802,-0.0219689,0.247729,-0.0548825,0.192013,-0.0237514,0.521495,-0.801249,-0.624105,-10.0035,0.881995,0.309619,-0.449133,-0.801249,-0.624105,-0.209745,
3.555,-119.111,-10.8472,-79.9632,-0.386558,0.514771,-0.688417,0.334164,-0.0620459,-0.362435,0.154625,-1.8203,9.5264,-2.12872,0.0272289,-0.481074,0.267993,19.79,100.001,0.025,-0.101326,-0.547988,0.251125,-0.036699,0.240338,-0.0534074,0.191942,-0.025394,0.516244,-0.403854,0.170658,-9.91993,0.0227841,0.0548536,-0.452347,-0.403854,0.170658,-0.126188,
3.58024,-119.111,-10.8472,-79.9632,-0.386558,0.514771,-0.688417,0.334164,-0.0620459,-0.362435,0.154625,-1.8203,9.5264,-2.12872,0.0272289,-0.481074,0.267993,19.79,100.001,0.025,-0.101326,-0.547988,0.251125,-0.036699,0.240338,-0.0534074,0.191942,-0.025394,0.516244,-0.403854,0.170658,-9.91993,0.0227841,0.0548536,-0.452347,-0.403854,0.170658,-0.126188,
3.60546,-118.157,-10.6638,-80.2472,-0.390677,0.513941,-0.683911,0.339855,-0.00927233,-0.284179,0.0760147,-2.71167,8.67251,-2.00112,0.0284128,-0.483507,0.269388,19.79,100.001,0.024999,-0.0348895,-0.410301,0.170004,-0.0673134,0.220468,-0.0490994,0.194283,-0.026064,0.518392,0.0379864,1.13713,-9.23448,-0.899369,-0.813002,-0.370746,0.0379864,1.13713,0.559271,
3.63068,-118.157,-10.6638,-80.2472,-0.390677,0.513941,-0.683911,0.339855,-0.00927233,-0.284179,0.0760147,-2.71167,8.67251,-2.00112,0.0284128,-0.483507,0.269388,19.79,100.001,0.024999,-0.0348895,-0.410301,0.170004,-0.0673134,0.220468,-0.0490994,0.194283,-0.026064,0.518392,0.0379864,1.13713,-9.23448,-0.899369,-0.813002,-0.370746,0.0379864,1.13713,0.559271,
3.65589,-117.166,-10.7823,-80.3236,-0.395977,0.510533,-0.680888,0.34489,0.0307741,-0.263652,-0.0104493,-1.29335,9.39716,-1.24834,0.0318936,-0.483508,0.266915,19.79,100.001,0.024999,0.0670336,-0.478061,0.0215636,-0.0480399,0.229387,-0.0377561,0.192026,-0.0241025,0.518252,0.0813707,-0.605683,-9.548,0.538835,-0.0868034,0.368766,0.0813707,-0.605683,0.24575,
3.68128,-116.93,-10.8206,-80.3592,-0.397341,0.509778,-0.68011,0.345971,0.000383353,-0.126391,0.00923203,-0.916692,9.61354,-1.46233,0.0330372,-0.481047,0.269506,19.79,100.001,0.025001,0.0115668,-0.240353,0.0307538,-0.0212873,0.238996,-0.0314625,0.194527,-0.0258475,0.516355,-0.268825,-0.900814,-9.7219,0.921926,0.12979,0.148669,-0.268825,-0.900814,0.0718498,
3.70676,-116.93,-10.8206,-80.3592,-0.397341,0.509778,-0.68011,0.345971,0.000383353,-0.126391,0.00923203,-0.916692,9.61354,-1.46233,0.0330372,-0.481047,0.269506,19.79,100.001,0.025001,0.0115668,-0.240353,0.0307538,-0.0212873,0.238996,-0.0314625,0.194527,-0.0258475,0.516355,-0.268825,-0.900814,-9.7219,0.921926,0.12979,0.148669,-0.268825,-0.900814,0.0718498,
3.73201,-116.704,-10.8834,-80.3545,-0.398668,0.508719,-0.679599,0.347006,0.00563791,0.0239646,-0.0476282,-2.62086,9.56292,-1.72058,0.0330614,-0.483476,0.272158,19.79,100.001,0.025001,0.0249219,-0.0497846,-0.00804585,-0.0659776,0.239119,-0.0473038,0.197048,-0.0250873,0.519091,0.248243,0.702611,-10.0361,-0.771691,0.0812929,-0.10914,0.248243,0.702611,-0.242364,
3.7573,-116.704,-10.8834,-80.3545,-0.398668,0.508719,-0.679599,0.347006,0.00563791,0.0239646,-0.0476282,-2.62086,9.56292,-1.72058,0.0330614,-0.483476,0.272158,19.79,100.001,0.025001,0.0249219,-0.0497846,-0.00804585,-0.0659776,0.239119,-0.0473038,0.197048,-0.0250873,0.519091,0.248243,0.702611,-10.0361,-0.771691,0.0812929,-0.10914,0.248243,0.702611,-0.242364,
3.78271,-116.84,-11.1559,-80.3057,-0.399379,0.50783,-0.680879,0.344976,0.0216364,0.0112114,-0.134619,-2.40964,9.72972,-2.08319,0.0365471,-0.483458,0.273587,19.79,100.013,0.025001,0.0251166,0.00912204,-0.147516,-0.0639197,0.241195,-0.0490754,0.197453,-0.0267753,0.51982,-0.171389,0.580537,-10.2199,-0.514744,0.258246,-0.465171,-0.171389,0.580537,-0.426191,
3.80851,-117.083,-11.4606,-80.1906,-0.399596,0.50679,-0.682837,0.342375,0.0539287,-0.0127072,-0.0883652,-0.812768,9.98764,-1.7501,0.0388681,-0.483457,0.272372,19.79,100.013,0.025001,0.0470604,0.0781016,-0.119213,-0.0239909,0.250914,-0.0422922,0.195574,-0.0261237,0.520092,-0.575003,-1.07414,-10.0991,1.13319,0.529496,-0.114804,-0.575003,-1.07414,-0.305365,
3.83384,-117.083,-11.4606,-80.1906,-0.399596,0.50679,-0.682837,0.342375,0.0539287,-0.0127072,-0.0883652,-0.812768,9.98764,-1.7501,0.0388681,-0.483457,0.272372,19.79,100.013,0.025001,0.0470604,0.0781016,-0.119213,-0.0239909,0.250914,-0.0422922,0.195574,-0.0261237,0.520092,-0.575003,-1.07414,-10.0991,1.13319,0.529496,-0.114804,-0.575003,-1.07414,-0.305365,
3.85909,-116.834,-11.5993,-80.0803,-0.401111,0.504713,-0.682904,0.343536,0.153961,-0.311596,-0.0541658,-1.50263,9.38917,-1.8318,0.0388858,-0.485913,0.269823,19.79,100.013,0.024999,0.162795,-0.270192,-0.065341,-0.0296889,0.240989,-0.0457168,0.192942,-0.0219657,0.522224,-0.37047,-0.318158,-9.67117,0.466564,-0.061138,-0.179105,-0.37047,-0.318158,0.122581,
3.88438,-116.834,-11.5993,-80.0803,-0.401111,0.504713,-0.682904,0.343536,0.153961,-0.311596,-0.0541658,-1.50263,9.38917,-1.8318,0.0388858,-0.485913,0.269823,19.79,100.013,0.024999,0.162795,-0.270192,-0.065341,-0.0296889,0.240989,-0.0457168,0.192942,-0.0219657,0.522224,-0.37047,-0.318158,-9.67117,0.466564,-0.061138,-0.179105,-0.37047,-0.318158,0.122581,
3.90967,-115.614,-11.912,-79.7253,-0.407041,0.497046,-0.6815,0.350457,0.171317,-0.232987,-0.0143468,-1.90851,8.79603,-1.82132,0.0446168,-0.476085,0.27633,19.79,100.001,0.024999,0.298997,-0.553178,-0.00616538,-0.0515954,0.221209,-0.0477103,0.195932,-0.0238339,0.515799,-0.195258,0.109007,-9.1804,0.113015,-0.633143,-0.112059,-0.195258,0.109007,0.613344,
3.93493,-115.577,-11.9212,-79.561,-0.406746,0.4959,-0.682122,0.351214,0.094537,0.0744642,0.00133764,-2.46132,9.08589,-1.60189,0.0434344,-0.473644,0.276235,19.79,100.001,0.025,0.174215,-0.042908,0.0276027,-0.0560082,0.222678,-0.0416655,0.195288,-0.0224497,0.513702,0.280888,0.422649,-9.5352,-0.438254,-0.338019,0.134364,0.280888,0.422649,0.258546,
3.96018,-115.661,-11.9139,-79.4,-0.40585,0.49527,-0.683058,0.35132,0.11189,-0.000344964,-0.0120221,-2.65195,9.12954,-1.2687,0.0457531,-0.472388,0.281495,19.79,100.001,0.025,0.145549,0.07653,0.0226747,-0.0641437,0.227437,-0.0357461,0.197829,-0.0265051,0.514436,0.690272,0.438407,-9.55627,-0.630112,-0.289712,0.494063,0.690272,0.438407,0.237478,
3.98547,-115.353,-12.0623,-79.169,-0.407262,0.492195,-0.683455,0.35323,0.0384053,-0.0595894,-0.0397111,-2.28347,9.33889,-0.669543,0.048083,-0.473616,0.279006,19.79,100.001,0.025,0.121025,-0.186015,-0.0237111,-0.0608168,0.230406,-0.0169725,0.193398,-0.0239737,0.516227,1.11575,-0.207826,-9.57023,-0.236826,-0.0680078,1.13019,1.11575,-0.207826,0.223519,
4.01076,-115.353,-12.0623,-79.169,-0.407262,0.492195,-0.683455,0.35323,0.0384053,-0.0595894,-0.0397111,-2.28347,9.33889,-0.669543,0.048083,-0.473616,0.279006,19.79,100.001,0.025,0.121025,-0.186015,-0.0237111,-0.0608168,0.230406,-0.0169725,0.193398,-0.0239737,0.516227,1.11575,-0.207826,-9.57023,-0.236826,-0.0680078,1.13019,1.11575,-0.207826,0.223519,
4.03629,-115.499,-12.0915,-79.1907,-0.406854,0.492727,-0.683882,0.35213,-0.0786034,0.185119,-0.0377149,-2.14471,9.51893,-1.56771,0.0503775,-0.469929,0.281614,19.79,100.013,0.024999,-0.0489601,0.130241,-0.0250136,-0.0530914,0.235769,-0.0285719,0.195308,-0.028347,0.513545,0.254522,-0.0361273,-9.87935,-0.0931866,0.11238,0.228256,0.254522,-0.0361273,-0.0855999,
4.06174,-115.499,-12.0915,-79.1907,-0.406854,0.492727,-0.683882,0.35213,-0.0786034,0.185119,-0.0377149,-2.14471,9.51893,-1.56771,0.0503775,-0.469929,0.281614,19.79,100.013,0.024999,-0.0489601,0.130241,-0.0250136,-0.0530914,0.235769,-0.0285719,0.195308,-0.028347,0.513545,0.254522,-0.0361273,-9.87935,-0.0931866,0.11238,0.228256,0.254522,-0.0361273,-0.0855999,
4.08699,-115.856,-12.1705,-79.3659,-0.406277,0.494717,-0.684403,0.34898,-0.0843629,0.000332524,-0.061458,-1.81542,9.35277,-1.51153,0.0467976,-0.458952,0.279954,19.79,100.013,0.025001,-0.113981,0.0622421,-0.0512021,-0.0489852,0.235411,-0.0430209,0.197659,-0.0288466,0.501298,0.119432,-0.304684,-9.64094,0.249322,-0.0564341,0.255147,0.119432,-0.304684,0.152806,
4.11232,-115.769,-12.4084,-79.7734,-0.409158,0.495876,-0.682935,0.346839,-0.184169,-0.0357143,-0.0865287,-1.95466,9.10171,-1.47016,0.0538912,-0.476122,0.26367,19.78,100.008,0.025,-0.228639,-0.0807979,-0.0881411,-0.0491089,0.228759,-0.0349552,0.182815,-0.0237271,0.514912,0.121099,-0.138161,-9.42281,0.149804,-0.311308,0.228013,0.121099,-0.138161,0.370932,
4.13773,-115.769,-12.4084,-79.7734,-0.409158,0.495876,-0.682935,0.346839,-0.184169,-0.0357143,-0.0865287,-1.95466,9.10171,-1.47016,0.0538912,-0.476122,0.26367,19.78,100.008,0.025,-0.228639,-0.0807979,-0.0881411,-0.0491089,0.228759,-0.0349552,0.182815,-0.0237271,0.514912,0.121099,-0.138161,-9.42281,0.149804,-0.311308,0.228013,0.121099,-0.138161,0.370932,
4.16317,-115.869,-12.6846,-80.3989,-0.412067,0.498841,-0.681171,0.342586,-0.239097,0.0265731,-0.113096,-2.23155,8.87829,-1.66209,0.0516378,-0.483431,0.268939,19.785,100.025,0.025001,-0.336512,0.0459845,-0.124491,-0.054964,0.22243,-0.0437257,0.194034,-0.0228076,0.520126,-0.0575397,0.243501,-9.30075,-0.0810049,-0.542587,-0.0684803,-0.0575397,0.243501,0.492999,
4.18855,-115.869,-12.6846,-80.3989,-0.412067,0.498841,-0.681171,0.342586,-0.239097,0.0265731,-0.113096,-2.23155,8.87829,-1.66209,0.0516378,-0.483431,0.268939,19.785,100.025,0.025001,-0.336512,0.0459845,-0.124491,-0.054964,0.22243,-0.0437257,0.194034,-0.0228076,0.520126,-0.0575397,0.243501,-9.30075,-0.0810049,-0.542587,-0.0684803,-0.0575397,0.243501,0.492999,
4.21389,-115.877,-12.8622,-80.7469,-0.414008,0.500217,-0.680093,0.340373,-0.2443,-0.0481025,-0.127317,-2.27094,8.95787,-1.44027,0.0515975,-0.478538,0.270136,19.79,100.013,0.024999,-0.345786,-0.0267172,-0.145472,-0.056783,0.222228,-0.0369961,0.19881,-0.0247429,0.514293,0.101742,0.166559,-9.35077,-0.0907782,-0.465896,0.0949981,0.101742,0.166559,0.44298,
4.23948,-115.819,-13.2387,-81.4328,-0.418261,0.502546,-0.677806,0.336279,-0.214256,-0.00475657,-0.122613,-2.21286,9.21519,-2.02171,0.0562855,-0.484671,0.262635,19.79,100.013,0.024999,-0.321402,-0.0352684,-0.147779,-0.0541395,0.227607,-0.0527572,0.196628,-0.024118,0.517501,-0.564598,0.271246,-9.67013,0.0299891,-0.211911,-0.601517,-0.564598,0.271246,0.12362,
4.26484,-115.819,-13.2387,-81.4328,-0.418261,0.502546,-0.677806,0.336279,-0.214256,-0.00475657,-0.122613,-2.21286,9.21519,-2.02171,0.0562855,-0.484671,0.262635,19.79,100.013,0.024999,-0.321402,-0.0352684,-0.147779,-0.0541395,0.227607,-0.0527572,0.196628,-0.024118,0.517501,-0.564598,0.271246,-9.67013,0.0299891,-0.211911,-0.601517,-0.564598,0.271246,0.12362,
4.29028,-115.647,-13.6099,-81.9406,-0.422429,0.50341,-0.675952,0.333498,-0.142864,-0.0644796,-0.116459,-2.63291,9.18187,-1.62834,0.0597753,-0.485903,0.258889,19.7875,100.013,0.024999,-0.204973,-0.143416,-0.137972,-0.0614211,0.229178,-0.0404609,0.197217,-0.0240781,0.516938,-0.134526,0.470599,-9.67733,-0.32834,-0.242859,-0.29381,-0.134526,0.470599,0.116411,
4.31552,-115.647,-13.6099,-81.9406,-0.422429,0.50341,-0.675952,0.333498,-0.142864,-0.0644796,-0.116459,-2.63291,9.18187,-1.62834,0.0597753,-0.485903,0.258889,19.7875,100.013,0.024999,-0.204973,-0.143416,-0.137972,-0.0614211,0.229178,-0.0404609,0.197217,-0.0240781,0.516938,-0.134526,0.470599,-9.67733,-0.32834,-0.242859,-0.29381,-0.134526,0.470599,0.116411,
4.34083,-115.707,-13.7699,-82.1306,-0.423541,0.504106,-0.675671,0.331601,-0.139111,0.0721164,-0.114666,-2.53884,9.42729,-1.77427,0.0609454,-0.487128,0.257657,19.79,100.001,0.025001,-0.202829,0.0304699,-0.135369,-0.0655249,0.233268,-0.043461,0.197662,-0.0240632,0.517442,-0.34026,0.369419,-9.91037,-0.207693,0.0046064,-0.471901,-0.34026,0.369419,-0.116621,
4.36608,-115.707,-13.7699,-82.1306,-0.423541,0.504106,-0.675671,0.331601,-0.139111,0.0721164,-0.114666,-2.53884,9.42729,-1.77427,0.0609454,-0.487128,0.257657,19.79,100.001,0.025001,-0.202829,0.0304699,-0.135369,-0.0655249,0.233268,-0.043461,0.197662,-0.0240632,0.517442,-0.34026,0.369419,-9.91037,-0.207693,0.0046064,-0.471901,-0.34026,0.369419,-0.116621,
4.39133,-115.9,-14.0412,-82.3473,-0.424716,0.504997,-0.67591,0.328239,-0.0505668,-0.0091131,-0.0886576,-2.20707,9.71316,-1.27183,0.0621316,-0.490815,0.252577,19.785,99.996,0.025001,-0.0960629,0.0273775,-0.106611,-0.0562994,0.2411,-0.0344017,0.195176,-0.0215072,0.519614,-0.0732377,-0.226328,-10.0388,0.16909,0.296661,-0.00658521,-0.0732377,-0.226328,-0.24506,
4.41663,-115.747,-14.2315,-82.3904,-0.426493,0.50391,-0.675727,0.327981,0.0317164,-0.0629637,-0.0380614,-2.43352,10.068,-1.7352,0.0656397,-0.493233,0.255356,19.79,100.013,0.025001,0.0273386,-0.104581,-0.0368492,-0.0611131,0.249386,-0.0407277,0.197331,-0.023141,0.522799,-0.413884,0.0319972,-10.4941,-0.0258267,0.658415,-0.478093,-0.413884,0.0319972,-0.700305,
4.44211,-115.747,-14.2315,-82.3904,-0.426493,0.50391,-0.675727,0.327981,0.0317164,-0.0629637,-0.0380614,-2.43352,10.068,-1.7352,0.0656397,-0.493233,0.255356,19.79,100.013,0.025001,0.0273386,-0.104581,-0.0368492,-0.0611131,0.249386,-0.0407277,0.197331,-0.023141,0.522799,-0.413884,0.0319972,-10.4941,-0.0258267,0.658415,-0.478093,-0.413884,0.0319972,-0.700305,
4.46738,-115.759,-14.263,-82.2129,-0.426094,0.502778,-0.676615,0.328405,0.0582195,0.108414,0.0167925,-2.2853,9.71212,-1.28071,0.06558,-0.485888,0.257801,19.79,100.001,0.025001,0.0942985,0.067563,0.0332366,-0.0597229,0.242777,-0.0330451,0.198414,-0.0250646,0.516578,-0.0439802,-0.19933,-10.0572,0.127615,0.307795,0.00536115,-0.0439802,-0.19933,-0.263412,
4.49281,-115.759,-14.263,-82.2129,-0.426094,0.502778,-0.676615,0.328405,0.0582195,0.108414,0.0167925,-2.2853,9.71212,-1.28071,0.06558,-0.485888,0.257801,19.79,100.001,0.025001,0.0942985,0.067563,0.0332366,-0.0597229,0.242777,-0.0330451,0.198414,-0.0250646,0.516578,-0.0439802,-0.19933,-10.0572,0.127615,0.307795,0.00536115,-0.0439802,-0.19933,-0.263412,
4.51832,-115.996,-14.17,-82.0724,-0.42417,0.503207,-0.677695,0.328013,0.0565309,0.205196,0.0571617,-2.32756,9.69073,-1.41638,0.0656097,-0.489558,0.256579,19.79,100.001,0.024999,0.0833463,0.234295,0.090393,-0.0576392,0.242392,-0.0323274,0.195667,-0.0244936,0.520498,-0.121252,-0.0974013,-10.0653,0.0699405,0.285725,-0.10672,-0.121252,-0.0974013,-0.271534,
4.54378,-116.414,-13.8896,-81.6818,-0.41976,0.503569,-0.679959,0.328444,0.128235,0.101387,0.0967029,-1.9859,9.29857,-0.917499,0.0609695,-0.489557,0.260309,19.78,100.008,0.025,0.171232,0.180867,0.15273,-0.0556499,0.231351,-0.0294269,0.196671,-0.0238446,0.521436,0.252615,-0.474613,-9.5373,0.365104,-0.108786,0.457934,0.252615,-0.474613,0.25645,
4.56938,-116.414,-13.8896,-81.6818,-0.41976,0.503569,-0.679959,0.328444,0.128235,0.101387,0.0967029,-1.9859,9.29857,-0.917499,0.0609695,-0.489557,0.260309,19.78,100.008,0.025,0.171232,0.180867,0.15273,-0.0556499,0.231351,-0.0294269,0.196671,-0.0238446,0.521436,0.252615,-0.474613,-9.5373,0.365104,-0.108786,0.457934,0.252615,-0.474613,0.25645,
4.59484,-116.661,-13.4722,-81.3446,-0.415523,0.504148,-0.68119,0.330386,0.0724526,0.109925,0.149299,-2.30263,9.28105,-1.29147,0.0562695,-0.482209,0.266484,19.79,100.001,0.025,0.115379,0.163443,0.235776,-0.0553596,0.235196,-0.0254941,0.200059,-0.0269518,0.515709,0.132497,-0.00343978,-9.64834,-0.0209519,-0.134732,0.141844,0.132497,-0.00343978,0.14541,
4.62041,-116.661,-13.4722,-81.3446,-0.415523,0.504148,-0.68119,0.330386,0.0724526,0.109925,0.149299,-2.30263,9.28105,-1.29147,0.0562695,-0.482209,0.266484,19.79,100.001,0.025,0.115379,0.163443,0.235776,-0.0553596,0.235196,-0.0254941,0.200059,-0.0269518,0.515709,0.132497,-0.00343978,-9.64834,-0.0209519,-0.134732,0.141844,0.132497,-0.00343978,0.14541,
4.64582,-116.55,-13.0911,-81.0991,-0.413298,0.503817,-0.681067,0.333917,0.10903,-0.111987,0.122543,-2.59908,9.22031,-1.37051,0.0528329,-0.488349,0.262585,19.7825,100.001,0.025,0.154038,-0.119446,0.215955,-0.0650983,0.229575,-0.0342892,0.19443,-0.0222299,0.521469,0.252804,0.343469,-9.66777,-0.38079,-0.204032,0.105458,0.252804,0.343469,0.12598,
4.67129,-116.55,-13.0911,-81.0991,-0.413298,0.503817,-0.681067,0.333917,0.10903,-0.111987,0.122543,-2.59908,9.22031,-1.37051,0.0528329,-0.488349,0.262585,19.7825,100.001,0.025,0.154038,-0.119446,0.215955,-0.0650983,0.229575,-0.0342892,0.19443,-0.0222299,0.521469,0.252804,0.343469,-9.66777,-0.38079,-0.204032,0.105458,0.252804,0.343469,0.12598,
4.69671,-116.414,-12.9486,-81.0021,-0.412865,0.503321,-0.680761,0.335819,0.0705478,-0.0285441,0.108834,-2.40333,9.29977,-1.19247,0.0551259,-0.48467,0.263893,19.78,99.996,0.025001,0.131296,-0.114521,0.193078,-0.0634804,0.231337,-0.0320631,0.19348,-0.0259916,0.519108,0.355535,0.0938474,-9.67205,-0.208781,-0.127476,0.300304,0.355535,0.0938474,0.121696,
4.72212,-116.495,-12.6452,-80.8861,-0.410565,0.504142,-0.680803,0.33732,0.0362014,-0.00634951,0.0930487,-2.16573,9.46322,-1.41806,0.0515127,-0.470032,0.260855,19.79,100.001,0.025001,0.0427596,0.0591386,0.169496,-0.0550181,0.234845,-0.0330718,0.190814,-0.0276522,0.504434,0.0966967,-0.0274603,-9.81039,-0.0217558,0.0276708,0.0956156,0.0966967,-0.0274603,-0.0166435,
4.74762,-116.495,-12.6452,-80.8861,-0.410565,0.504142,-0.680803,0.33732,0.0362014,-0.00634951,0.0930487,-2.16573,9.46322,-1.41806,0.0515127,-0.470032,0.260855,19.79,100.001,0.025001,0.0427596,0.0591386,0.169496,-0.0550181,0.234845,-0.0330718,0.190814,-0.0276522,0.504434,0.0966967,-0.0274603,-9.81039,-0.0217558,0.0276708,0.0956156,0.0966967,-0.0274603,-0.0166435,
4.77315,-115.924,-12.5302,-80.8469,-0.412349,0.502321,-0.679013,0.341443,0.0511866,-0.260152,0.0552177,-2.04463,9.56479,-1.10158,0.051628,-0.483471,0.261138,19.785,100.008,0.025001,0.0892446,-0.353316,0.117737,-0.0544391,0.238722,-0.0298654,0.189881,-0.0231758,0.517698,0.350595,-0.271357,-9.83274,0.0801556,0.126052,0.419235,0.350595,-0.271357,-0.0389919,
4.79875,-115.924,-12.5302,-80.8469,-0.412349,0.502321,-0.679013,0.341443,0.0511866,-0.260152,0.0552177,-2.04463,9.56479,-1.10158,0.051628,-0.483471,0.261138,19.785,100.008,0.025001,0.0892446,-0.353316,0.117737,-0.0544391,0.238722,-0.0298654,0.189881,-0.0231758,0.517698,0.350595,-0.271357,-9.83274,0.0801556,0.126052,0.419235,0.350595,-0.271357,-0.0389919,
4.82414,-115.361,-12.4897,-80.982,-0.415006,0.501251,-0.67664,0.344493,-0.0461265,-0.0973826,0.0386116,-2.0591,9.38224,-1.5628,0.0539747,-0.485891,0.263875,19.79,100.013,0.025001,-0.041481,-0.196055,0.087632,-0.0530012,0.234377,-0.0370759,0.192388,-0.0247618,0.520584,-0.0857892,-0.0108693,-9.73145,0.0589368,-0.0615401,-0.0640108,-0.0857892,-0.0108693,0.0622911,
4.8496,-115.206,-12.4643,-81.0931,-0.415887,0.501446,-0.675626,0.345138,-0.0569022,-0.105965,0.0308406,-2.08171,9.24244,-1.29558,0.0574579,-0.484616,0.271777,19.7825,100.001,0.024999,-0.0726903,-0.150629,0.0792157,-0.0515271,0.232963,-0.0359051,0.199028,-0.0314421,0.520976,0.144576,-0.0475032,-9.56094,0.0320933,-0.205154,0.185036,0.144576,-0.0475032,0.232803,
4.87507,-115.206,-12.4643,-81.0931,-0.415887,0.501446,-0.675626,0.345138,-0.0569022,-0.105965,0.0308406,-2.08171,9.24244,-1.29558,0.0574579,-0.484616,0.271777,19.7825,100.001,0.024999,-0.0726903,-0.150629,0.0792157,-0.0515271,0.232963,-0.0359051,0.199028,-0.0314421,0.520976,0.144576,-0.0475032,-9.56094,0.0320933,-0.205154,0.185036,0.144576,-0.0475032,0.232803,
4.90053,-114.959,-12.4552,-81.3499,-0.417695,0.502097,-0.673735,0.345704,-0.0677524,-0.0685948,0.0068417,-2.26259,9.3121,-1.89845,0.0563078,-0.487105,0.263986,19.7875,99.989,0.024999,-0.102328,-0.10574,0.0460232,-0.0565826,0.231159,-0.0421946,0.19443,-0.0271353,0.521144,-0.36339,0.348039,-9.7563,-0.150302,-0.14237,-0.460137,-0.36339,0.348039,0.0374451,
4.926,-114.959,-12.4552,-81.3499,-0.417695,0.502097,-0.673735,0.345704,-0.0677524,-0.0685948,0.0068417,-2.26259,9.3121,-1.89845,0.0563078,-0.487105,0.263986,19.7875,99.989,0.024999,-0.102328,-0.10574,0.0460232,-0.0565826,0.231159,-0.0421946,0.19443,-0.0271353,0.521144,-0.36339,0.348039,-9.7563,-0.150302,-0.14237,-0.460137,-0.36339,0.348039,0.0374451,
4.95139,-114.814,-12.4549,-81.4924,-0.418761,0.502404,-0.67267,0.346041,-0.0229978,-0.00671202,0.0171015,-1.75421,9.32988,-1.68407,0.0540062,-0.489557,0.263953,19.79,100.013,0.024999,-0.0368808,-0.0505117,0.0459595,-0.0465741,0.234624,-0.0455943,0.196434,-0.0245998,0.522554,-0.397777,-0.180592,-9.63168,0.358021,-0.128147,-0.269269,-0.397777,-0.180592,0.16207,
4.9768,-114.863,-12.4145,-81.5185,-0.418413,0.502901,-0.672606,0.345864,-0.0305871,0.0719402,0.0257667,-2.21094,9.13699,-1.70006,0.0539505,-0.483461,0.261223,19.79,100.013,0.025001,-0.0347253,0.0478458,0.0634154,-0.0493664,0.230565,-0.0407379,0.194275,-0.0256684,0.516218,-0.234574,0.287828,-9.54595,-0.105453,-0.323153,-0.289352,-0.234574,0.287828,0.247796,
5.00218,-114.863,-12.4145,-81.5185,-0.418413,0.502901,-0.672606,0.345864,-0.0305871,0.0719402,0.0257667,-2.21094,9.13699,-1.70006,0.0539505,-0.483461,0.261223,19.79,100.013,0.025001,-0.0347253,0.0478458,0.0634154,-0.0493664,0.230565,-0.0407379,0.194275,-0.0256684,0.516218,-0.234574,0.287828,-9.54595,-0.105453,-0.323153,-0.289352,-0.234574,0.287828,0.247796,
5.02756,-115.471,-12.2756,-81.5184,-0.41501,0.505674,-0.674097,0.343007,-0.0535529,0.308433,0.0112463,-2.31415,8.77905,-1.80178,0.0539328,-0.481005,0.263772,19.78,100.008,0.025001,-0.0731735,0.392422,0.0501571,-0.0625661,0.217128,-0.0512328,0.195874,-0.0304779,0.514348,-0.285651,0.53328,-9.2362,-0.231858,-0.686114,-0.3903,-0.285651,0.53328,0.557548,
5.05296,-115.471,-12.2756,-81.5184,-0.41501,0.505674,-0.674097,0.343007,-0.0535529,0.308433,0.0112463,-2.31415,8.77905,-1.80178,0.0539328,-0.481005,0.263772,19.78,100.008,0.025001,-0.0731735,0.392422,0.0501571,-0.0625661,0.217128,-0.0512328,0.195874,-0.0304779,0.514348,-0.285651,0.53328,-9.2362,-0.231858,-0.686114,-0.3903,-0.285651,0.53328,0.557548,
5.07837,-116.055,-12.1419,-81.4576,-0.411544,0.507959,-0.675785,0.340476,0.0111924,0.0682227,0.030033,-1.51188,9.66535,-1.38492,0.0458439,-0.485926,0.262277,19.79,100.001,0.025001,-0.00328637,0.184106,0.0618476,-0.0416881,0.237092,-0.0348747,0.196472,-0.0243216,0.517516,-0.193409,-0.54616,-9.86342,0.548076,0.196911,0.0373077,-0.193409,-0.54616,-0.0696735,
5.10378,-116.055,-12.1419,-81.4576,-0.411544,0.507959,-0.675785,0.340476,0.0111924,0.0682227,0.030033,-1.51188,9.66535,-1.38492,0.0458439,-0.485926,0.262277,19.79,100.001,0.025001,-0.00328637,0.184106,0.0618476,-0.0416881,0.237092,-0.0348747,0.196472,-0.0243216,0.517516,-0.193409,-0.54616,-9.86342,0.548076,0.196911,0.0373077,-0.193409,-0.54616,-0.0696735,
5.12921,-116.014,-11.9566,-81.3935,-0.410559,0.508174,-0.6755,0.341906,0.0144887,0.0108845,0.0917086,-1.65789,10.1149,-1.21637,0.0480633,-0.473693,0.263404,19.79,100.013,0.025001,0.0359836,-0.0242855,0.146985,-0.0371701,0.252839,-0.0314738,0.195862,-0.030855,0.506718,0.0655833,-0.57468,-10.3055,0.371084,0.641475,0.217446,0.0655833,-0.57468,-0.51178,
5.15471,-116.071,-11.8122,-81.3843,-0.40952,0.508898,-0.675361,0.34235,-0.0107859,0.0656125,0.0894543,-2.29275,9.88276,-0.998134,0.0447018,-0.488379,0.260985,19.78,99.996,0.024999,-0.000331682,0.0701437,0.162512,-0.0521965,0.249089,-0.0274123,0.193796,-0.0245778,0.520062,0.537165,-0.0252828,-10.18,-0.28792,0.404588,0.437953,0.537165,-0.0252828,-0.386271,
5.18016,-116.071,-11.8122,-81.3843,-0.40952,0.508898,-0.675361,0.34235,-0.0107859,0.0656125,0.0894543,-2.29275,9.88276,-0.998134,0.0447018,-0.488379,0.260985,19.78,99.996,0.024999,-0.000331682,0.0701437,0.162512,-0.0521965,0.249089,-0.0274123,0.193796,-0.0245778,0.520062,0.537165,-0.0252828,-10.18,-0.28792,0.404588,0.437953,0.537165,-0.0252828,-0.386271,
5.20567,-116.025,-11.6638,-81.4412,-0.409111,0.509659,-0.674611,0.343184,-0.0222397,-0.0600511,0.0172432,-2.61434,9.53803,-1.00986,0.0447106,-0.489607,0.259711,19.7825,99.996,0.025,-0.0232626,-0.0696784,0.0779578,-0.0653374,0.239412,-0.0226028,0.192464,-0.0250826,0.521049,0.651613,0.375314,-9.91278,-0.63436,0.0533308,0.41758,0.651613,0.375314,-0.119033,
5.23108,-116.025,-11.6638,-81.4412,-0.409111,0.509659,-0.674611,0.343184,-0.0222397,-0.0600511,0.0172432,-2.61434,9.53803,-1.00986,0.0447106,-0.489607,0.259711,19.7825,99.996,0.025,-0.0232626,-0.0696784,0.0779578,-0.0653374,0.239412,-0.0226028,0.192464,-0.0250826,0.521049,0.651613,0.375314,-9.91278,-0.63436,0.0533308,0.41758,0.651613,0.375314,-0.119033,
5.25659,-115.969,-11.7486,-81.5734,-0.410205,0.509898,-0.67406,0.342605,-0.0526092,0.000713551,-0.0536815,-2.37204,9.46071,-1.13332,0.0469703,-0.482267,0.259641,19.79,100.001,0.025,-0.0683354,-0.00793332,-0.0307812,-0.061596,0.236208,-0.030398,0.19316,-0.0285663,0.513882,0.406201,0.228118,-9.80811,-0.377856,-0.0243446,0.271801,0.406201,0.228118,-0.0143652,
5.28201,-115.936,-11.9264,-81.7454,-0.411797,0.510085,-0.673631,0.34126,-0.0605395,-0.0140715,-0.0547719,-1.84822,9.45434,-1.39597,0.0457429,-0.474955,0.256843,19.78,100.008,0.025,-0.0826672,-0.0348487,-0.0533304,-0.0487784,0.235505,-0.0310407,0.193501,-0.0273912,0.505421,-0.0945759,-0.139299,-9.73247,0.1757,-0.0287183,-0.020211,-0.0945759,-0.139299,0.0612774,
5.30743,-115.936,-11.9264,-81.7454,-0.411797,0.510085,-0.673631,0.34126,-0.0605395,-0.0140715,-0.0547719,-1.84822,9.45434,-1.39597,0.0457429,-0.474955,0.256843,19.78,100.008,0.025,-0.0826672,-0.0348487,-0.0533304,-0.0487784,0.235505,-0.0310407,0.193501,-0.0273912,0.505421,-0.0945759,-0.139299,-9.73247,0.1757,-0.0287183,-0.020211,-0.0945759,-0.139299,0.0612774,
5.33282,-115.964,-11.9874,-81.8198,-0.412216,0.510378,-0.673529,0.340515,-0.049618,0.0370158,-0.0369303,-1.86408,9.56916,-1.93149,0.0457707,-0.478633,0.254321,19.78,99.996,0.025001,-0.0767832,0.0125598,-0.0335326,-0.0477552,0.23832,-0.0442271,0.191865,-0.0254221,0.508336,-0.582698,0.0602725,-9.92125,0.170053,0.0864617,-0.568359,-0.582698,0.0602725,-0.127502,
5.35823,-115.964,-11.9874,-81.8198,-0.412216,0.510378,-0.673529,0.340515,-0.049618,0.0370158,-0.0369303,-1.86408,9.56916,-1.93149,0.0457707,-0.478633,0.254321,19.78,99.996,0.025001,-0.0767832,0.0125598,-0.0335326,-0.0477552,0.23832,-0.0442271,0.191865,-0.0254221,0.508336,-0.582698,0.0602725,-9.92125,0.170053,0.0864617,-0.568359,-0.582698,0.0602725,-0.127502,
5.38374,-115.99,-12.0023,-81.8282,-0.412202,0.510463,-0.673607,0.340252,0.0146249,0.0124275,0.0210463,-1.43422,9.5727,-1.53539,0.0481765,-0.487137,0.262388,19.785,100.001,0.025001,0.0216043,-0.0115114,0.0422936,-0.0378496,0.238416,-0.0404505,0.197907,-0.0287259,0.51815,-0.411636,-0.481252,-9.78008,0.60241,0.0903239,-0.173718,-0.411636,-0.481252,0.0136671,
5.40924,-116.029,-11.9386,-81.8004,-0.411613,0.510692,-0.67369,0.340456,0.0155626,0.0410703,0.0506793,-1.53285,9.69426,-1.65329,0.0469909,-0.484711,0.259693,19.7875,100.001,0.024999,0.0232284,0.0406501,0.0856988,-0.0382235,0.242119,-0.0391635,0.195587,-0.0277068,0.515337,-0.462349,-0.368447,-9.9354,0.493114,0.210303,-0.286698,-0.462349,-0.368447,-0.124816,
5.43481,-116.073,-11.8385,-81.7464,-0.41073,0.510931,-0.673819,0.340908,0.0439303,0.0359302,0.0708867,-1.6767,9.62699,-1.779,0.0446432,-0.483558,0.247881,19.79,100.013,0.025001,0.0470459,0.0507558,0.120681,-0.040469,0.241777,-0.0448254,0.185152,-0.0218134,0.512357,-0.500877,-0.162284,-9.91856,0.332522,0.14084,-0.402972,-0.500877,-0.162284,-0.124816,
5.46043,-116.355,-11.5688,-81.6016,-0.407619,0.512155,-0.67465,0.341162,0.00455941,0.160879,0.073983,-1.96491,9.45762,-1.02834,0.0423831,-0.489635,0.255726,19.785,99.996,0.025001,0.0259058,0.212832,0.140796,-0.0515234,0.234997,-0.026747,0.190624,-0.0240102,0.519635,0.334422,-0.144986,-9.70732,-0.000833789,-0.0342728,0.373033,0.334422,-0.144986,0.0864258,
5.48586,-116.355,-11.5688,-81.6016,-0.407619,0.512155,-0.67465,0.341162,0.00455941,0.160879,0.073983,-1.96491,9.45762,-1.02834,0.0423831,-0.489635,0.255726,19.785,99.996,0.025001,0.0259058,0.212832,0.140796,-0.0515234,0.234997,-0.026747,0.190624,-0.0240102,0.519635,0.334422,-0.144986,-9.70732,-0.000833789,-0.0342728,0.373033,0.334422,-0.144986,0.0864258,
5.51148,-116.543,-11.4456,-81.5751,-0.406049,0.513152,-0.675028,0.340787,-0.022317,0.136953,0.0579806,-2.0523,9.53041,-1.00956,0.041165,-0.48228,0.260728,19.7825,99.996,0.024999,-0.00804916,0.194006,0.122809,-0.0497982,0.238846,-0.0252393,0.195181,-0.0282977,0.513198,0.405503,-0.0780876,-9.79231,-0.108847,0.0350104,0.396811,0.405503,-0.0780876,0.00143814,
5.53717,-116.543,-11.4456,-81.5751,-0.406049,0.513152,-0.675028,0.340787,-0.022317,0.136953,0.0579806,-2.0523,9.53041,-1.00956,0.041165,-0.48228,0.260728,19.7825,99.996,0.024999,-0.00804916,0.194006,0.122809,-0.0497982,0.238846,-0.0252393,0.195181,-0.0282977,0.513198,0.405503,-0.0780876,-9.79231,-0.108847,0.0350104,0.396811,0.405503,-0.0780876,0.00143814,
5.56374,-117.358,-11.233,-81.7502,-0.401771,0.51789,-0.676137,0.336466,-0.175797,0.364173,0.00657515,-2.25057,8.94592,-1.21379,0.0318243,-0.477457,0.253783,19.7875,99.996,0.024999,-0.224283,0.500323,0.0555078,-0.0551818,0.221602,-0.0254142,0.193434,-0.0236071,0.505381,0.279487,0.360827,-9.29298,-0.342759,-0.560802,0.164584,0.279487,0.360827,0.500761,
5.5893,-117.726,-11.27,-82.0531,-0.401184,0.520823,-0.675928,0.33304,-0.133494,0.0718447,-0.0574197,-2.40081,8.70911,-0.929009,0.0330694,-0.487225,0.254032,19.79,100.001,0.024999,-0.151742,0.0134436,-0.0339016,-0.0664483,0.22136,-0.0287096,0.195058,-0.0248665,0.514148,0.550868,0.437671,-9.05431,-0.486783,-0.803541,0.398921,0.550868,0.437671,0.739434,
5.61478,-117.726,-11.27,-82.0531,-0.401184,0.520823,-0.675928,0.33304,-0.133494,0.0718447,-0.0574197,-2.40081,8.70911,-0.929009,0.0330694,-0.487225,0.254032,19.79,100.001,0.024999,-0.151742,0.0134436,-0.0339016,-0.0664483,0.22136,-0.0287096,0.195058,-0.0248665,0.514148,0.550868,0.437671,-9.05431,-0.486783,-0.803541,0.398921,0.550868,0.437671,0.739434,
5.6402,-118.169,-11.4102,-82.3779,-0.400847,0.523749,-0.676062,0.328557,-0.0919078,0.0191315,-0.0670233,-1.52831,9.75402,-1.40544,0.0318492,-0.481146,0.24866,19.79,100.001,0.025,-0.177566,0.151156,-0.0710072,-0.0444773,0.236627,-0.034793,0.193892,-0.0248204,0.5061,-0.300592,-0.351068,-9.96184,0.409213,0.23866,-0.132082,-0.300592,-0.351068,-0.168093,
5.66562,-118.169,-11.4102,-82.3779,-0.400847,0.523749,-0.676062,0.328557,-0.0919078,0.0191315,-0.0670233,-1.52831,9.75402,-1.40544,0.0318492,-0.481146,0.24866,19.79,100.001,0.025,-0.177566,0.151156,-0.0710072,-0.0444773,0.236627,-0.034793,0.193892,-0.0248204,0.5061,-0.300592,-0.351068,-9.96184,0.409213,0.23866,-0.132082,-0.300592,-0.351068,-0.168093,
5.69105,-118.041,-11.5103,-82.4722,-0.402232,0.523472,-0.675503,0.328454,-0.0283935,-0.136235,-0.0485364,-1.28709,9.87454,-0.985925,0.0364647,-0.477459,0.250053,19.79,100.013,0.025001,-0.0654635,-0.142617,-0.0527476,-0.0344519,0.246742,-0.0284865,0.194268,-0.0295355,0.503201,-0.058445,-0.782361,-9.97595,0.667196,0.360468,0.271325,-0.058445,-0.782361,-0.182208,
5.71652,-117.637,-11.618,-82.5127,-0.404763,0.521871,-0.674413,0.330129,0.0780151,-0.169614,-0.00384603,-1.96145,9.94192,-2.16583,0.0388863,-0.488423,0.25427,19.79,100.013,0.025,0.0678369,-0.231035,0.018554,-0.0377068,0.24859,-0.0496102,0.19762,-0.0288561,0.514623,-0.81065,0.288266,-10.3266,0.0108688,0.430618,-0.915796,-0.81065,0.288266,-0.532899,
5.74192,-117.637,-11.618,-82.5127,-0.404763,0.521871,-0.674413,0.330129,0.0780151,-0.169614,-0.00384603,-1.96145,9.94192,-2.16583,0.0388863,-0.488423,0.25427,19.79,100.013,0.025,0.0678369,-0.231035,0.018554,-0.0377068,0.24859,-0.0496102,0.19762,-0.0288561,0.514623,-0.81065,0.288266,-10.3266,0.0108688,0.430618,-0.915796,-0.81065,0.288266,-0.532899,
5.76735,-118.222,-11.5648,-82.229,-0.401001,0.522459,-0.677259,0.327956,0.0241873,0.545232,-0.0202142,-1.55969,9.47193,-2.45347,0.0377307,-0.489671,0.250354,19.79,100.001,0.025001,0.0583531,0.563223,0.00994726,-0.0412884,0.236545,-0.061253,0.191952,-0.026879,0.516053,-1.21205,0.173888,-9.83211,0.40373,-0.0348685,-1.1561,-1.21205,0.173888,-0.0383625,
5.79286,-118.222,-11.5648,-82.229,-0.401001,0.522459,-0.677259,0.327956,0.0241873,0.545232,-0.0202142,-1.55969,9.47193,-2.45347,0.0377307,-0.489671,0.250354,19.79,100.001,0.025001,0.0583531,0.563223,0.00994726,-0.0412884,0.236545,-0.061253,0.191952,-0.026879,0.516053,-1.21205,0.173888,-9.83211,0.40373,-0.0348685,-1.1561,-1.21205,0.173888,-0.0383625,
5.81824,-118.969,-11.5166,-81.9711,-0.396598,0.523717,-0.680451,0.324679,0.120073,0.435042,-0.0534996,-2.6545,9.26533,-2.53973,0.0319717,-0.49582,0.246369,19.79,100.013,0.024999,0.109225,0.725502,-0.0232891,-0.0527735,0.232559,-0.0628161,0.188473,-0.0202555,0.521177,-0.729657,1.20237,-9.86736,-0.699166,-0.237174,-1.19935,-0.729657,1.20237,-0.0736122,
5.84373,-119.807,-11.7084,-81.1687,-0.391551,0.521078,-0.686909,0.321438,0.272782,0.155118,-0.130183,-2.4516,8.90036,-1.08419,0.0330831,-0.488432,0.256658,19.7875,100.008,0.024999,0.372493,0.278422,-0.148971,-0.0599388,0.223003,-0.0340488,0.191554,-0.0249765,0.517897,0.545383,0.358375,-9.27234,-0.464142,-0.575913,0.388113,0.545383,0.358375,0.521401,
5.86913,-119.807,-11.7084,-81.1687,-0.391551,0.521078,-0.686909,0.321438,0.272782,0.155118,-0.130183,-2.4516,8.90036,-1.08419,0.0330831,-0.488432,0.256658,19.7875,100.008,0.024999,0.372493,0.278422,-0.148971,-0.0599388,0.223003,-0.0340488,0.191554,-0.0249765,0.517897,0.545383,0.358375,-9.27234,-0.464142,-0.575913,0.388113,0.545383,0.358375,0.521401,
5.89456,-120.106,-12.0471,-80.2703,-0.389518,0.5154,-0.692562,0.32093,0.284283,0.0818161,-0.127191,-2.31032,9.48889,-1.07297,0.0342163,-0.484752,0.259224,19.78,99.996,0.025,0.421056,0.0973476,-0.158903,-0.0639341,0.235951,-0.0274758,0.187978,-0.021836,0.517242,0.607644,-0.0406921,-9.80597,-0.266209,0.0486092,0.545716,0.607644,-0.0406921,-0.0122223,
5.92003,-120.106,-12.0471,-80.2703,-0.389518,0.5154,-0.692562,0.32093,0.284283,0.0818161,-0.127191,-2.31032,9.48889,-1.07297,0.0342163,-0.484752,0.259224,19.78,99.996,0.025,0.421056,0.0973476,-0.158903,-0.0639341,0.235951,-0.0274758,0.187978,-0.021836,0.517242,0.607644,-0.0406921,-9.80597,-0.266209,0.0486092,0.545716,0.607644,-0.0406921,-0.0122223,
5.94556,-120.242,-12.2523,-79.4768,-0.38781,0.510262,-0.696937,0.321738,0.254073,-0.0271187,-0.0330317,-1.78653,9.48268,-0.998812,0.0341737,-0.478601,0.266895,19.78,100.008,0.025,0.377277,-0.015632,-0.0460872,-0.0374904,0.239874,-0.0220347,0.189866,-0.0217823,0.514719,0.511096,-0.612128,-9.66823,0.291865,0.0729781,0.749108,0.511096,-0.612128,0.125518,
5.97105,-120.242,-12.2523,-79.4768,-0.38781,0.510262,-0.696937,0.321738,0.254073,-0.0271187,-0.0330317,-1.78653,9.48268,-0.998812,0.0341737,-0.478601,0.266895,19.78,100.008,0.025,0.377277,-0.015632,-0.0460872,-0.0374904,0.239874,-0.0220347,0.189866,-0.0217823,0.514719,0.511096,-0.612128,-9.66823,0.291865,0.0729781,0.749108,0.511096,-0.612128,0.125518,
5.99656,-120.335,-12.2587,-79.1467,-0.386503,0.508542,-0.69868,0.322253,0.186809,0.150492,-0.00822531,-2.29366,9.48902,-1.5146,0.0353294,-0.477356,0.270812,19.78,100.008,0.025001,0.313465,0.0827786,0.0069299,-0.0549634,0.235759,-0.0325631,0.190281,-0.0234704,0.515459,0.360323,0.0232881,-9.87249,-0.214194,0.0897768,0.287466,0.360323,0.0232881,-0.0787449,
6.02198,-120.948,-12.1238,-78.5801,-0.381447,0.507649,-0.702629,0.321096,0.144415,0.13982,-0.00209467,-2.7284,9.50534,-1.3748,0.0329553,-0.469986,0.279672,19.79,100.013,0.025001,0.2122,0.273302,0.0404417,-0.0628939,0.237259,-0.0382326,0.194468,-0.0278013,0.511468,0.794458,0.285659,-9.94852,-0.671479,0.119603,0.521086,0.794458,0.285659,-0.154775,
6.04739,-120.948,-12.1238,-78.5801,-0.381447,0.507649,-0.702629,0.321096,0.144415,0.13982,-0.00209467,-2.7284,9.50534,-1.3748,0.0329553,-0.469986,0.279672,19.79,100.013,0.025001,0.2122,0.273302,0.0404417,-0.0628939,0.237259,-0.0382326,0.194468,-0.0278013,0.511468,0.794458,0.285659,-9.94852,-0.671479,0.119603,0.521086,0.794458,0.285659,-0.154775,
6.0729,-120.822,-12.3233,-78.2385,-0.382153,0.504369,-0.7042,0.321983,0.136157,-0.287719,-0.106716,-2.77202,8.74229,-1.12116,0.0376271,-0.473655,0.27602,19.785,99.996,0.025,0.180631,-0.224989,-0.0946154,-0.0713324,0.220787,-0.026199,0.187173,-0.025253,0.516023,1.01439,0.364421,-9.17644,-0.681762,-0.624909,0.829185,1.01439,0.364421,0.617311,
6.09843,-120.822,-12.3233,-78.2385,-0.382153,0.504369,-0.7042,0.321983,0.136157,-0.287719,-0.106716,-2.77202,8.74229,-1.12116,0.0376271,-0.473655,0.27602,19.785,99.996,0.025,0.180631,-0.224989,-0.0946154,-0.0713324,0.220787,-0.026199,0.187173,-0.025253,0.516023,1.01439,0.364421,-9.17644,-0.681762,-0.624909,0.829185,1.01439,0.364421,0.617311,
6.12386,-119.57,-12.9247,-78.1662,-0.390749,0.497369,-0.702223,0.326835,0.0498506,-0.360228,-0.104415,-1.62633,9.08324,-1.31976,0.0434539,-0.474818,0.284059,19.78,99.996,0.025,0.137248,-0.659529,-0.133328,-0.0434305,0.225138,-0.0339835,0.193945,-0.0242464,0.519449,0.26773,-0.685253,-9.29251,0.564236,-0.259502,0.637797,0.26773,-0.685253,0.501236,
6.14931,-119.321,-13.0962,-78.2458,-0.393001,0.496329,-0.701525,0.327216,-0.0473378,-0.0984798,-0.0660192,-1.14016,8.95901,-1.44111,0.0456613,-0.461371,0.28386,19.7825,100.025,0.024999,-0.0187427,-0.278158,-0.0879019,-0.0334821,0.225884,-0.0325185,0.195116,-0.0281803,0.506617,-0.100868,-1.0254,-9.0873,1.07897,-0.379984,0.502126,-0.100868,-1.0254,0.70645,
6.17487,-119.321,-13.0962,-78.2458,-0.393001,0.496329,-0.701525,0.327216,-0.0473378,-0.0984798,-0.0660192,-1.14016,8.95901,-1.44111,0.0456613,-0.461371,0.28386,19.7825,100.025,0.024999,-0.0187427,-0.278158,-0.0879019,-0.0334821,0.225884,-0.0325185,0.195116,-0.0281803,0.506617,-0.100868,-1.0254,-9.0873,1.07897,-0.379984,0.502126,-0.100868,-1.0254,0.70645,
6.20063,-118.934,-13.2447,-78.3136,-0.395682,0.494826,-0.700437,0.32859,0.103177,-0.275792,-0.0043254,-1.89171,9.78819,-2.72505,0.0479944,-0.462585,0.283972,19.79,100.013,0.024999,0.0826633,-0.294969,0.0154793,-0.038042,0.238084,-0.068675,0.195356,-0.027727,0.507933,-0.833082,-0.0892608,-10.301,0.352142,0.452567,-0.794042,-0.833082,-0.0892608,-0.507277,
6.22605,-118.934,-13.2447,-78.3136,-0.395682,0.494826,-0.700437,0.32859,0.103177,-0.275792,-0.0043254,-1.89171,9.78819,-2.72505,0.0479944,-0.462585,0.283972,19.79,100.013,0.024999,0.0826633,-0.294969,0.0154793,-0.038042,0.238084,-0.068675,0.195356,-0.027727,0.507933,-0.833082,-0.0892608,-10.301,0.352142,0.452567,-0.794042,-0.833082,-0.0892608,-0.507277,
6.25147,-118.581,-13.2503,-78.0963,-0.396607,0.492255,-0.700368,0.331471,0.0990216,0.0752991,0.053913,-1.8138,10.5891,-4.88452,0.0457417,-0.471156,0.281466,19.7825,100.001,0.024999,0.138589,-0.0212237,0.0839291,-0.0451708,0.275933,-0.111376,0.192128,-0.0198844,0.515747,-2.68104,0.503664,-11.482,0.430979,1.26112,-2.91817,-2.68104,0.503664,-1.68827,
6.27688,-119.229,-12.8591,-77.5212,-0.390011,0.492506,-0.703891,0.331463,0.215746,0.189454,0.108497,-2.13272,9.71274,-2.37403,0.0422362,-0.467462,0.289062,19.7875,100.001,0.025,0.26233,0.372967,0.174314,-0.0484927,0.246613,-0.0650694,0.194432,-0.0236493,0.515265,-0.262357,-0.0199106,-10.2202,0.0469245,0.390181,-0.310885,-0.262357,-0.0199106,-0.426456,
6.30282,-119.229,-12.8591,-77.5212,-0.390011,0.492506,-0.703891,0.331463,0.215746,0.189454,0.108497,-2.13272,9.71274,-2.37403,0.0422362,-0.467462,0.289062,19.7875,100.001,0.025,0.26233,0.372967,0.174314,-0.0484927,0.246613,-0.0650694,0.194432,-0.0236493,0.515265,-0.262357,-0.0199106,-10.2202,0.0469245,0.390181,-0.310885,-0.262357,-0.0199106,-0.426456,
6.32832,-119.296,-12.6729,-77.1513,-0.387618,0.491195,-0.705285,0.333247,0.252706,0.0392385,0.12272,-2.06047,9.13416,-2.55303,0.0399151,-0.467463,0.290276,19.78,100.008,0.025,0.357316,0.0988764,0.196985,-0.0504093,0.233536,-0.060157,0.192954,-0.0220281,0.51639,-0.432586,0.164751,-9.69444,0.0881223,-0.181741,-0.428183,-0.432586,0.164751,0.099308,
6.35373,-119.296,-12.6729,-77.1513,-0.387618,0.491195,-0.705285,0.333247,0.252706,0.0392385,0.12272,-2.06047,9.13416,-2.55303,0.0399151,-0.467463,0.290276,19.78,100.008,0.025,0.357316,0.0988764,0.196985,-0.0504093,0.233536,-0.060157,0.192954,-0.0220281,0.51639,-0.432586,0.164751,-9.69444,0.0881223,-0.181741,-0.428183,-0.432586,0.164751,0.099308,
6.37954,-119.647,-12.1705,-76.4913,-0.381385,0.490279,-0.708093,0.33582,0.161489,0.227288,0.169176,-1.44996,8.92431,-1.75829,0.0329191,-0.463807,0.292543,19.78,100.008,0.025,0.25815,0.291899,0.251621,-0.0408547,0.222977,-0.050092,0.191292,-0.0199301,0.51458,0.0792835,-0.618831,-9.18956,0.614768,-0.384455,0.478045,0.0792835,-0.618831,0.604181,
6.4057,-119.647,-12.1705,-76.4913,-0.381385,0.490279,-0.708093,0.33582,0.161489,0.227288,0.169176,-1.44996,8.92431,-1.75829,0.0329191,-0.463807,0.292543,19.78,100.008,0.025,0.25815,0.291899,0.251621,-0.0408547,0.222977,-0.050092,0.191292,-0.0199301,0.51458,0.0792835,-0.618831,-9.18956,0.614768,-0.384455,0.478045,0.0792835,-0.618831,0.604181,
6.4315,-120.238,-11.3675,-75.9616,-0.372768,0.492075,-0.710438,0.337912,0.164725,0.151858,0.258198,-1.11373,9.46688,-1.70303,0.0259174,-0.458909,0.298684,19.78,100.008,0.025001,0.210517,0.34497,0.384108,-0.0237559,0.235045,-0.0465045,0.192752,-0.0236682,0.512609,0.153825,-1.01537,-9.6285,0.816629,0.152028,0.626051,0.153825,-1.01537,0.165248,
6.45695,-120.02,-11.0541,-75.688,-0.371114,0.490884,-0.710312,0.341708,0.254435,-0.264137,0.233628,-2.25929,9.69441,-0.980185,0.0270997,-0.461348,0.298778,19.78,99.996,0.024999,0.318526,-0.137022,0.385039,-0.0464192,0.239909,-0.0323917,0.188581,-0.0243368,0.51642,1.43767,-0.403565,-9.89025,-0.381485,0.380694,1.39593,1.43767,-0.403565,-0.0965052,
6.48242,-120.02,-11.0541,-75.688,-0.371114,0.490884,-0.710312,0.341708,0.254435,-0.264137,0.233628,-2.25929,9.69441,-0.980185,0.0270997,-0.461348,0.298778,19.78,99.996,0.024999,0.318526,-0.137022,0.385039,-0.0464192,0.239909,-0.0323917,0.188581,-0.0243368,0.51642,1.43767,-0.403565,-9.89025,-0.381485,0.380694,1.39593,1.43767,-0.403565,-0.0965052,
6.50799,-119.086,-10.7577,-75.2734,-0.372162,0.486442,-0.708635,0.350295,0.147488,-0.173214,0.142663,-2.3456,9.35204,-2.18166,0.0235771,-0.456459,0.301147,19.79,100.001,0.025,0.246912,-0.334687,0.256071,-0.0598291,0.236378,-0.0466965,0.188866,-0.0209213,0.513315,0.482825,0.317962,-9.86853,-0.517527,0.0464944,0.264229,0.482825,0.317962,-0.0747881,
6.53342,-119.086,-10.7577,-75.2734,-0.372162,0.486442,-0.708635,0.350295,0.147488,-0.173214,0.142663,-2.3456,9.35204,-2.18166,0.0235771,-0.456459,0.301147,19.79,100.001,0.025,0.246912,-0.334687,0.256071,-0.0598291,0.236378,-0.0466965,0.188866,-0.0209213,0.513315,0.482825,0.317962,-9.86853,-0.517527,0.0464944,0.264229,0.482825,0.317962,-0.0747881,
6.55889,-118.569,-10.6318,-74.8903,-0.372455,0.482888,-0.708392,0.355355,0.184284,-0.0946006,0.0395362,-2.62824,8.69109,-3.58926,0.0280975,-0.440513,0.310082,19.78,99.996,0.025,0.263791,-0.229547,0.118047,-0.0647011,0.21938,-0.0815148,0.193514,-0.030492,0.502608,-0.641177,1.33116,-9.65103,-0.821333,-0.601761,-1.08017,-0.641177,1.33116,0.142719,
6.58431,-118.811,-10.5251,-74.2681,-0.368897,0.480237,-0.711532,0.356383,0.221824,0.154376,0.00586623,-1.78743,8.64692,-2.97368,0.0246643,-0.446638,0.308782,19.78,99.996,0.024999,0.305318,0.211924,0.0415138,-0.045339,0.218019,-0.081702,0.187844,-0.0239122,0.509493,-0.410452,0.328167,-9.30219,0.00156167,-0.621353,-0.362917,-0.410452,0.328167,0.491555,
6.60975,-118.811,-10.5251,-74.2681,-0.368897,0.480237,-0.711532,0.356383,0.221824,0.154376,0.00586623,-1.78743,8.64692,-2.97368,0.0246643,-0.446638,0.308782,19.78,99.996,0.024999,0.305318,0.211924,0.0415138,-0.045339,0.218019,-0.081702,0.187844,-0.0239122,0.509493,-0.410452,0.328167,-9.30219,0.00156167,-0.621353,-0.362917,-0.410452,0.328167,0.491555,
6.63516,-119.047,-10.4611,-73.9229,-0.366467,0.479101,-0.713577,0.356331,0.194778,0.189383,-0.00604,-2.1594,8.6203,-2.41024,0.0223273,-0.444177,0.313846,19.79,100.025,0.025001,0.3042,0.235422,0.028716,-0.0506218,0.214793,-0.064606,0.190733,-0.0243507,0.509234,0.304248,0.401086,-9.19393,-0.381168,-0.633995,0.256859,0.304248,0.401086,0.599815,
6.66062,-119.047,-10.4611,-73.9229,-0.366467,0.479101,-0.713577,0.356331,0.194778,0.189383,-0.00604,-2.1594,8.6203,-2.41024,0.0223273,-0.444177,0.313846,19.79,100.025,0.025001,0.3042,0.235422,0.028716,-0.0506218,0.214793,-0.064606,0.190733,-0.0243507,0.509234,0.304248,0.401086,-9.19393,-0.381168,-0.633995,0.256859,0.304248,0.401086,0.599815,
6.68611,-119.592,-10.4096,-73.3223,-0.362034,0.477283,-0.717666,0.355089,0.169162,0.110391,-0.0744579,-2.86233,8.97011,-2.23515,0.0235193,-0.446577,0.321741,19.785,99.996,0.025001,0.249516,0.219922,-0.0445778,-0.0676609,0.220871,-0.0628555,0.191546,-0.027303,0.515816,0.942962,0.783259,-9.59943,-1.09276,-0.257241,0.529275,0.942962,0.783259,0.194316,
6.71153,-120.185,-10.6241,-73.0138,-0.359858,0.476378,-0.721216,0.351303,-0.0110618,0.303359,-0.157312,-2.1841,9.10403,-2.43217,0.021145,-0.441737,0.313752,19.78,100.008,0.025001,0.0266438,0.346852,-0.184366,-0.0607755,0.22837,-0.0507649,0.185035,-0.022016,0.509212,0.49472,0.187039,-9.65864,-0.378477,-0.101906,0.379941,0.49472,0.187039,0.135105,
6.73707,-120.185,-10.6241,-73.0138,-0.359858,0.476378,-0.721216,0.351303,-0.0110618,0.303359,-0.157312,-2.1841,9.10403,-2.43217,0.021145,-0.441737,0.313752,19.78,100.008,0.025001,0.0266438,0.346852,-0.184366,-0.0607755,0.22837,-0.0507649,0.185035,-0.022016,0.509212,0.49472,0.187039,-9.65864,-0.378477,-0.101906,0.379941,0.49472,0.187039,0.135105,
6.76271,-120.982,-10.8795,-72.8897,-0.357653,0.477097,-0.724663,0.345435,-0.0139901,0.158427,-0.167595,-1.45989,8.89034,-2.25638,0.0199499,-0.436821,0.320107,19.78,100.008,0.025001,-0.00614708,0.266034,-0.20911,-0.0409637,0.222178,-0.0581933,0.191736,-0.0253312,0.506235,0.241578,-0.48959,-9.2716,0.388626,-0.3017,0.573275,0.241578,-0.48959,0.522148,
6.78829,-120.982,-10.8795,-72.8897,-0.357653,0.477097,-0.724663,0.345435,-0.0139901,0.158427,-0.167595,-1.45989,8.89034,-2.25638,0.0199499,-0.436821,0.320107,19.78,100.008,0.025001,-0.00614708,0.266034,-0.20911,-0.0409637,0.222178,-0.0581933,0.191736,-0.0253312,0.506235,0.241578,-0.48959,-9.2716,0.388626,-0.3017,0.573275,0.241578,-0.48959,0.522148,
6.81384,-121.289,-11.0316,-72.8675,-0.357196,0.477327,-0.725975,0.342827,-0.0248492,0.182157,-0.15594,-1.24332,9.00543,-3.27608,0.0223128,-0.441706,0.318995,19.7825,100.008,0.024999,-0.0330483,0.238438,-0.202689,-0.0346605,0.223637,-0.0740134,0.189222,-0.0250693,0.51081,-0.725717,-0.273984,-9.63196,0.630709,-0.180792,-0.44433,-0.725717,-0.273984,0.16179,
6.83923,-121.289,-11.0316,-72.8675,-0.357196,0.477327,-0.725975,0.342827,-0.0248492,0.182157,-0.15594,-1.24332,9.00543,-3.27608,0.0223128,-0.441706,0.318995,19.7825,100.008,0.024999,-0.0330483,0.238438,-0.202689,-0.0346605,0.223637,-0.0740134,0.189222,-0.0250693,0.51081,-0.725717,-0.273984,-9.63196,0.630709,-0.180792,-0.44433,-0.725717,-0.273984,0.16179,
6.86462,-121.727,-11.292,-72.7365,-0.356507,0.476856,-0.728324,0.339198,0.0711926,-0.03956,-0.118904,-1.43403,9.19459,-3.0191,0.021033,-0.428286,0.316069,19.79,100.001,0.025,0.0661054,0.0660423,-0.143466,-0.0325271,0.232023,-0.0786299,0.189544,-0.0256907,0.497176,-0.388219,-0.334232,-9.76982,0.483669,0.0230936,-0.168903,-0.388219,-0.334232,0.0239258,
6.89001,-121.239,-11.7207,-72.5126,-0.360375,0.472245,-0.728615,0.340933,0.128446,-0.245058,-0.0535159,-0.963262,8.97211,-3.29943,0.0211289,-0.439274,0.317601,19.79,100.013,0.025,0.177878,-0.350272,-0.0775071,-0.022598,0.223122,-0.0786547,0.189605,-0.0169826,0.507976,-0.902337,-0.618287,-9.54549,1.02625,-0.174233,-0.417821,-0.902337,-0.618287,0.248254,
6.91544,-121.239,-11.7207,-72.5126,-0.360375,0.472245,-0.728615,0.340933,0.128446,-0.245058,-0.0535159,-0.963262,8.97211,-3.29943,0.0211289,-0.439274,0.317601,19.79,100.013,0.025,0.177878,-0.350272,-0.0775071,-0.022598,0.223122,-0.0786547,0.189605,-0.0169826,0.507976,-0.902337,-0.618287,-9.54549,1.02625,-0.174233,-0.417821,-0.902337,-0.618287,0.248254,
6.94086,-120.354,-12.0307,-72.2587,-0.365044,0.466615,-0.727593,0.345865,0.156613,-0.330818,0.00593901,-2.06478,8.97137,-3.32088,0.0315371,-0.434357,0.31658,19.78,100.008,0.024999,0.236288,-0.523703,0.0286514,-0.0499274,0.223376,-0.0747622,0.184127,-0.0203427,0.505536,-0.356467,0.240609,-9.77712,-0.0234207,-0.151727,-0.40208,-0.356467,0.240609,0.0166245,
6.96628,-120.354,-12.0307,-72.2587,-0.365044,0.466615,-0.727593,0.345865,0.156613,-0.330818,0.00593901,-2.06478,8.97137,-3.32088,0.0315371,-0.434357,0.31658,19.78,100.008,0.024999,0.236288,-0.523703,0.0286514,-0.0499274,0.223376,-0.0747622,0.184127,-0.0203427,0.505536,-0.356467,0.240609,-9.77712,-0.0234207,-0.151727,-0.40208,-0.356467,0.240609,0.0166245,
6.99177,-120.029,-12.1059,-72.1121,-0.366358,0.464349,-0.727348,0.348034,0.132276,-0.120024,0.023776,-2.67085,8.76176,-3.43188,0.0350376,-0.435539,0.321934,19.78,100.008,0.025001,0.216308,-0.33175,0.0548975,-0.0615139,0.221839,-0.0891244,0.186161,-0.0228199,0.5093,-0.176475,0.843193,-9.74359,-0.616909,-0.351278,-0.49057,-0.176475,0.843193,0.0501537,
7.0172,-120.009,-12.0121,-71.8719,-0.365161,0.463134,-0.728081,0.349375,0.0568352,0.0164814,0.0468346,-1.71562,9.31657,-2.70949,0.0326602,-0.428182,0.328193,19.79,100.013,0.025001,0.109381,-0.0203015,0.0836339,-0.0611574,0.228186,-0.0604458,0.191733,-0.0252875,0.504694,0.110271,-0.45644,-9.84188,0.322636,0.212752,0.27103,0.110271,-0.45644,-0.0481358,
7.04269,-120.009,-12.0121,-71.8719,-0.365161,0.463134,-0.728081,0.349375,0.0568352,0.0164814,0.0468346,-1.71562,9.31657,-2.70949,0.0326602,-0.428182,0.328193,19.79,100.013,0.025001,0.109381,-0.0203015,0.0836339,-0.0611574,0.228186,-0.0604458,0.191733,-0.0252875,0.504694,0.110271,-0.45644,-9.84188,0.322636,0.212752,0.27103,0.110271,-0.45644,-0.0481358,
7.06812,-120.118,-11.4451,-71.897,-0.361493,0.465885,-0.727223,0.351313,0.0171776,-0.271619,0.302065,0.668794,9.49849,-0.877556,0.0281247,-0.440393,0.332181,19.78,99.996,0.025,-0.0537473,0.0955556,0.379255,0.0116192,0.238879,-0.032826,0.192867,-0.024047,0.517016,0.576479,-3.22585,-8.98334,2.61215,0.37465,2.10511,0.576479,-3.22585,0.81041,
7.09364,-120.118,-11.4451,-71.897,-0.361493,0.465885,-0.727223,0.351313,0.0171776,-0.271619,0.302065,0.668794,9.49849,-0.877556,0.0281247,-0.440393,0.332181,19.78,99.996,0.025,-0.0537473,0.0955556,0.379255,0.0116192,0.238879,-0.032826,0.192867,-0.024047,0.517016,0.576479,-3.22585,-8.98334,2.61215,0.37465,2.10511,0.576479,-3.22585,0.81041,
7.11904,-119.048,-11.259,-72.0442,-0.365208,0.464164,-0.722947,0.358502,0.00261732,-0.718559,0.364258,-2.88535,10.4625,-0.692195,0.0303006,-0.423283,0.331905,19.7875,100.001,0.025,0.0669036,-0.945606,0.530599,-0.0411811,0.257684,-0.0120834,0.195391,-0.029732,0.501185,2.65428,-0.507725,-10.534,-0.973176,1.32504,2.26894,2.65428,-0.507725,-0.740241,
7.14447,-117.649,-10.5544,-72.8953,-0.369531,0.467842,-0.713602,0.36789,-0.289213,-0.320063,0.392168,-1.93398,9.15089,-1.55975,0.0304638,-0.442853,0.328419,19.78,99.996,0.024999,-0.393559,-0.393113,0.582351,-0.0567081,0.221862,-0.0379065,0.192961,-0.0274014,0.516644,1.16344,-0.366544,-9.4034,-0.140079,-0.0513055,1.27203,1.16344,-0.366544,0.390347,
7.16993,-117.649,-10.5544,-72.8953,-0.369531,0.467842,-0.713602,0.36789,-0.289213,-0.320063,0.392168,-1.93398,9.15089,-1.55975,0.0304638,-0.442853,0.328419,19.78,99.996,0.024999,-0.393559,-0.393113,0.582351,-0.0567081,0.221862,-0.0379065,0.192961,-0.0274014,0.516644,1.16344,-0.366544,-9.4034,-0.140079,-0.0513055,1.27203,1.16344,-0.366544,0.390347,
7.19536,-116.009,-9.76865,-73.9034,-0.375067,0.471917,-0.702402,0.378484,-0.219928,-0.404784,0.441322,-1.83338,9.20223,-3.92046,0.0293065,-0.444106,0.323203,19.78,99.996,0.025001,-0.329366,-0.679644,0.655689,-0.0425524,0.232042,-0.0900095,0.19417,-0.0294027,0.513792,-1.03869,0.642801,-10.0956,-0.171667,-0.0711244,-1.24444,-1.03869,0.642801,-0.301809,
7.22078,-116.009,-9.76865,-73.9034,-0.375067,0.471917,-0.702402,0.378484,-0.219928,-0.404784,0.441322,-1.83338,9.20223,-3.92046,0.0293065,-0.444106,0.323203,19.78,99.996,0.025001,-0.329366,-0.679644,0.655689,-0.0425524,0.232042,-0.0900095,0.19417,-0.0294027,0.513792,-1.03869,0.642801,-10.0956,-0.171667,-0.0711244,-1.24444,-1.03869,0.642801,-0.301809,
7.24622,-115.153,-8.74824,-74.5749,-0.375094,0.477349,-0.694397,0.386336,-0.136641,-0.120152,0.389604,-2.12668,9.49238,-3.7571,0.0223531,-0.4466,0.317798,19.78,100.008,0.024999,-0.226119,-0.197212,0.614082,-0.0535775,0.233314,-0.0910578,0.193683,-0.028815,0.512448,-0.755701,0.971564,-10.3551,-0.637117,0.161248,-1.18248,-0.755701,0.971564,-0.561388,
7.27166,-115.153,-8.74824,-74.5749,-0.375094,0.477349,-0.694397,0.386336,-0.136641,-0.120152,0.389604,-2.12668,9.49238,-3.7571,0.0223531,-0.4466,0.317798,19.78,100.008,0.024999,-0.226119,-0.197212,0.614082,-0.0535775,0.233314,-0.0910578,0.193683,-0.028815,0.512448,-0.755701,0.971564,-10.3551,-0.637117,0.161248,-1.18248,-0.755701,0.971564,-0.561388,
7.29724,-114.873,-8.30398,-74.7486,-0.374352,0.479282,-0.691657,0.389563,-0.0657913,-0.0658423,0.319597,-2.53092,9.43379,-4.1587,0.0199716,-0.440526,0.312383,19.78,100.008,0.025001,-0.129186,-0.155136,0.532072,-0.0611514,0.233296,-0.0991128,0.190789,-0.0294963,0.504752,-0.954618,1.57998,-10.4541,-1.11646,0.0840388,-1.60941,-0.954618,1.57998,-0.660399,
7.32272,-114.593,-7.76513,-74.6095,-0.372018,0.479709,-0.689965,0.394246,0.156292,-0.0632313,0.111507,-2.61543,9.61555,-3.28256,0.0188377,-0.442948,0.317593,19.78,100.008,0.025001,0.182651,-0.0994776,0.248641,-0.0723464,0.235848,-0.0892757,0.19252,-0.0326568,0.509208,-0.0491197,1.36545,-10.4023,-1.29217,0.259598,-0.707168,-0.0491197,1.36545,-0.608541,
7.34812,-114.593,-7.76513,-74.6095,-0.372018,0.479709,-0.689965,0.394246,0.156292,-0.0632313,0.111507,-2.61543,9.61555,-3.28256,0.0188377,-0.442948,0.317593,19.78,100.008,0.025001,0.182651,-0.0994776,0.248641,-0.0723464,0.235848,-0.0892757,0.19252,-0.0326568,0.509208,-0.0491197,1.36545,-10.4023,-1.29217,0.259598,-0.707168,-0.0491197,1.36545,-0.608541,
7.37353,-114.541,-7.61958,-74.0256,-0.369395,0.476612,-0.691867,0.397126,0.229455,0.0969641,0.0278695,-1.06883,9.52218,-3.19152,0.0153433,-0.441736,0.317439,19.78,99.996,0.025001,0.324721,0.0436783,0.0810579,-0.0334096,0.24005,-0.0802665,0.188908,-0.0283355,0.509553,-0.519776,-0.0604845,-10.0859,0.229771,0.189758,-0.520003,-0.519776,-0.0604845,-0.292198,
7.39903,-114.541,-7.61958,-74.0256,-0.369395,0.476612,-0.691867,0.397126,0.229455,0.0969641,0.0278695,-1.06883,9.52218,-3.19152,0.0153433,-0.441736,0.317439,19.78,99.996,0.025001,0.324721,0.0436783,0.0810579,-0.0334096,0.24005,-0.0802665,0.188908,-0.0283355,0.509553,-0.519776,-0.0604845,-10.0859,0.229771,0.189758,-0.520003,-0.519776,-0.0604845,-0.292198,
7.42445,-114.916,-7.41113,-73.2368,-0.363916,0.473879,-0.695934,0.398345,0.278421,0.125448,0.0454376,-0.598234,9.38637,-2.56854,0.0129732,-0.435613,0.321124,19.78,99.996,0.025001,0.386521,0.215615,0.0861527,-0.013167,0.234004,-0.0642774,0.187194,-0.0286468,0.507135,-0.0539999,-0.704414,-9.7242,0.665044,0.0871467,0.232537,-0.0539999,-0.704414,0.0695438,
7.44985,-114.967,-7.33096,-72.7906,-0.361693,0.471651,-0.69776,0.399818,0.321932,0.0187305,0.0382729,-1.27956,9.48061,-2.91873,0.0141548,-0.436792,0.328993,19.78,100.008,0.024999,0.441719,0.066072,0.092412,-0.024728,0.23656,-0.0690066,0.18953,-0.0313047,0.512174,0.0167525,-0.00411654,-10.0019,-0.0298724,0.201809,-0.0447889,0.0167525,-0.00411654,-0.208153,
7.47527,-114.967,-7.33096,-72.7906,-0.361693,0.471651,-0.69776,0.399818,0.321932,0.0187305,0.0382729,-1.27956,9.48061,-2.91873,0.0141548,-0.436792,0.328993,19.78,100.008,0.024999,0.441719,0.066072,0.092412,-0.024728,0.23656,-0.0690066,0.18953,-0.0313047,0.512174,0.0167525,-0.00411654,-10.0019,-0.0298724,0.201809,-0.0447889,0.0167525,-0.00411654,-0.208153,
7.50068,-115.115,-7.23776,-71.9037,-0.357448,0.467077,-0.701688,0.402125,0.274557,0.0851754,0.0024261,-1.54712,8.95284,-2.63449,0.0117633,-0.428225,0.332627,19.7825,100.008,0.025,0.413529,0.114601,0.0398018,-0.0376891,0.229456,-0.0662864,0.188182,-0.0300862,0.507778,0.403157,0.208111,-9.44889,-0.313238,-0.282291,0.383358,0.403157,0.208111,0.344853,
7.52608,-115.115,-7.23776,-71.9037,-0.357448,0.467077,-0.701688,0.402125,0.274557,0.0851754,0.0024261,-1.54712,8.95284,-2.63449,0.0117633,-0.428225,0.332627,19.7825,100.008,0.025,0.413529,0.114601,0.0398018,-0.0376891,0.229456,-0.0662864,0.188182,-0.0300862,0.507778,0.403157,0.208111,-9.44889,-0.313238,-0.282291,0.383358,0.403157,0.208111,0.344853,
7.55188,-115.268,-7.22638,-71.2128,-0.354334,0.463357,-0.705002,0.403385,0.205292,-0.00838536,-0.0204363,-1.2122,8.56868,-2.35055,0.00941909,-0.424526,0.340264,19.78,100.008,0.024999,0.314881,0.0203234,0.00418359,-0.0329842,0.216731,-0.0537153,0.19115,-0.0294091,0.508614,0.520246,-0.149444,-8.95119,0.0197573,-0.629623,0.778512,0.520246,-0.149444,0.84256,
7.57742,-115.093,-7.34687,-70.6948,-0.353909,0.459135,-0.706751,0.405519,0.178334,-0.121821,-0.0149614,-0.731844,8.14025,-2.97786,0.0105014,-0.414729,0.344,19.78,100.008,0.025,0.265702,-0.152303,0.00340851,-0.0215219,0.204767,-0.0740848,0.192824,-0.0304705,0.502331,-0.270194,-0.295798,-8.68944,0.52054,-1.02692,0.233372,-0.270194,-0.295798,1.1043,
7.60279,-115.093,-7.34687,-70.6948,-0.353909,0.459135,-0.706751,0.405519,0.178334,-0.121821,-0.0149614,-0.731844,8.14025,-2.97786,0.0105014,-0.414729,0.344,19.78,100.008,0.025,0.265702,-0.152303,0.00340851,-0.0215219,0.204767,-0.0740848,0.192824,-0.0304705,0.502331,-0.270194,-0.295798,-8.68944,0.52054,-1.02692,0.233372,-0.270194,-0.295798,1.1043,
7.62806,-114.947,-7.40429,-70.4807,-0.354069,0.457128,-0.707222,0.406824,0.154448,-0.109798,-0.000147736,-0.915856,8.4535,-3.09505,0.0116176,-0.409851,0.341339,19.78,99.996,0.025001,0.235589,-0.161395,0.0239912,-0.0177381,0.208375,-0.0769127,0.189878,-0.0299183,0.497671,-0.190227,-0.189267,-9.04477,0.346262,-0.700415,0.149996,-0.190227,-0.189267,0.748979,
7.65332,-114.947,-7.40429,-70.4807,-0.354069,0.457128,-0.707222,0.406824,0.154448,-0.109798,-0.000147736,-0.915856,8.4535,-3.09505,0.0116176,-0.409851,0.341339,19.78,99.996,0.025001,0.235589,-0.161395,0.0239912,-0.0177381,0.208375,-0.0769127,0.189878,-0.0299183,0.497671,-0.190227,-0.189267,-9.04477,0.346262,-0.700415,0.149996,-0.190227,-0.189267,0.748979,
7.67868,-114.798,-7.45282,-70.2211,-0.35402,0.454866,-0.707839,0.408327,0.0315836,-0.0169947,-0.00143659,-1.50563,8.93988,-2.19598,0.0140289,-0.419593,0.345529,19.78,100.008,0.025,0.0952475,-0.0471705,0.0313935,-0.0329117,0.22431,-0.060662,0.188276,-0.0291881,0.50926,0.99841,-0.124936,-9.27353,-0.235281,-0.198231,1.09014,0.99841,-0.124936,0.52022,
7.70396,-114.798,-7.45282,-70.2211,-0.35402,0.454866,-0.707839,0.408327,0.0315836,-0.0169947,-0.00143659,-1.50563,8.93988,-2.19598,0.0140289,-0.419593,0.345529,19.78,100.008,0.025,0.0952475,-0.0471705,0.0313935,-0.0329117,0.22431,-0.060662,0.188276,-0.0291881,0.50926,0.99841,-0.124936,-9.27353,-0.235281,-0.198231,1.09014,0.99841,-0.124936,0.52022,
7.72921,-114.779,-7.55707,-70.3221,-0.355062,0.455003,-0.70761,0.407665,-0.086545,0.035431,-0.0628282,-2.18934,8.97163,-2.57835,0.015129,-0.41225,0.346715,19.78,99.996,0.025001,-0.0845152,-0.0162631,-0.0401836,-0.0556975,0.222261,-0.0651443,0.191919,-0.0319741,0.502529,0.934771,0.609489,-9.52292,-0.901328,-0.170071,0.690873,0.934771,0.609489,0.270829,
7.75446,-114.851,-7.64546,-70.4579,-0.355773,0.4557,-0.70753,0.406405,-0.0955405,-0.020075,-0.0789146,-1.5893,9.25129,-2.72502,0.0128757,-0.422092,0.335137,19.78,100.008,0.025,-0.141208,0.0324841,-0.0761278,-0.0469416,0.229391,-0.0651856,0.181617,-0.0234195,0.507061,0.6013,0.045489,-9.75573,-0.286307,0.103752,0.521862,0.6013,0.045489,0.0380135,
7.77971,-114.851,-7.64546,-70.4579,-0.355773,0.4557,-0.70753,0.406405,-0.0955405,-0.020075,-0.0789146,-1.5893,9.25129,-2.72502,0.0128757,-0.422092,0.335137,19.78,100.008,0.025,-0.141208,0.0324841,-0.0761278,-0.0469416,0.229391,-0.0651856,0.181617,-0.0234195,0.507061,0.6013,0.045489,-9.75573,-0.286307,0.103752,0.521862,0.6013,0.045489,0.0380135,
7.80498,-114.569,-7.92521,-70.695,-0.359358,0.455129,-0.706232,0.406148,-0.0722687,-0.0883663,-0.0207727,-0.661753,9.68758,-3.1269,0.0198826,-0.425698,0.341969,19.78,99.996,0.025,-0.0869664,-0.200126,-0.031648,-0.0190581,0.238548,-0.0817164,0.186854,-0.0290285,0.51264,-0.0820689,-0.784636,-10.1707,0.688611,0.532796,0.0799542,-0.0820689,-0.784636,-0.376909,
7.8303,-114.569,-7.92521,-70.695,-0.359358,0.455129,-0.706232,0.406148,-0.0722687,-0.0883663,-0.0207727,-0.661753,9.68758,-3.1269,0.0198826,-0.425698,0.341969,19.78,99.996,0.025,-0.0869664,-0.200126,-0.031648,-0.0190581,0.238548,-0.0817164,0.186854,-0.0290285,0.51264,-0.0820689,-0.784636,-10.1707,0.688611,0.532796,0.0799542,-0.0820689,-0.784636,-0.376909,
7.85561,-114.116,-7.94012,-70.9218,-0.362047,0.455038,-0.703758,0.408152,-0.0195766,-0.325919,0.0915505,-0.875533,9.43739,-2.60921,0.019877,-0.424455,0.345843,19.7825,100.013,0.025,-0.0477827,-0.346454,0.137359,-0.0169935,0.238077,-0.0654112,0.19267,-0.0299983,0.512,0.367554,-0.693426,-9.79913,0.477356,0.270317,0.561271,0.367554,-0.693426,-0.00538158,
7.88113,-112.985,-7.96815,-71.1067,-0.36735,0.452453,-0.699033,0.414359,0.00435868,-0.342489,0.127232,-1.44172,9.35829,-3.31812,0.0221236,-0.417172,0.335374,19.78,100.008,0.025,0.00016339,-0.539303,0.209787,-0.035761,0.237412,-0.0791362,0.186443,-0.0270979,0.5015,-0.0803156,0.0899897,-10.0325,-0.0840853,0.181658,-0.177462,-0.0803156,0.0899897,-0.238776,
7.90639,-112.985,-7.96815,-71.1067,-0.36735,0.452453,-0.699033,0.414359,0.00435868,-0.342489,0.127232,-1.44172,9.35829,-3.31812,0.0221236,-0.417172,0.335374,19.78,100.008,0.025,0.00016339,-0.539303,0.209787,-0.035761,0.237412,-0.0791362,0.186443,-0.0270979,0.5015,-0.0803156,0.0899897,-10.0325,-0.0840853,0.181658,-0.177462,-0.0803156,0.0899897,-0.238776,
7.93166,-112.519,-7.92908,-71.141,-0.369088,0.451331,-0.697114,0.417261,0.0338125,-0.263407,0.132097,-1.25188,9.00985,-4.02614,0.0256477,-0.422054,0.334304,19.78,99.996,0.024999,0.0338777,-0.429373,0.215755,-0.0342078,0.229102,-0.0948239,0.183295,-0.0277146,0.506144,-0.873559,0.236854,-9.90632,0.0991393,-0.169536,-0.890677,-0.873559,0.236854,-0.112573,
7.95712,-112.519,-7.92908,-71.141,-0.369088,0.451331,-0.697114,0.417261,0.0338125,-0.263407,0.132097,-1.25188,9.00985,-4.02614,0.0256477,-0.422054,0.334304,19.78,99.996,0.024999,0.0338777,-0.429373,0.215755,-0.0342078,0.229102,-0.0948239,0.183295,-0.0277146,0.506144,-0.873559,0.236854,-9.90632,0.0991393,-0.169536,-0.890677,-0.873559,0.236854,-0.112573,
7.98241,-111.828,-7.78261,-71.0475,-0.37063,0.449152,-0.694593,0.422417,0.0893693,-0.182029,0.109907,-1.64906,9.0512,-3.54755,0.0302776,-0.418302,0.347397,19.78,99.996,0.025001,0.117981,-0.282242,0.201735,-0.0375517,0.22402,-0.092075,0.193337,-0.0355838,0.507871,-0.267282,0.450289,-9.84655,-0.322841,-0.126286,-0.395997,-0.267282,0.450289,-0.0528069,
8.00769,-111.828,-7.78261,-71.0475,-0.37063,0.449152,-0.694593,0.422417,0.0893693,-0.182029,0.109907,-1.64906,9.0512,-3.54755,0.0302776,-0.418302,0.347397,19.78,99.996,0.025001,0.117981,-0.282242,0.201735,-0.0375517,0.22402,-0.092075,0.193337,-0.0355838,0.507871,-0.267282,0.450289,-9.84655,-0.322841,-0.126286,-0.395997,-0.267282,0.450289,-0.0528069,
8.03296,-111.394,-7.70035,-70.8459,-0.371111,0.446879,-0.693576,0.426061,0.0868817,-0.11684,0.0473312,-2.03748,8.72087,-2.98725,0.0290541,-0.412236,0.339424,19.78,99.996,0.025001,0.129659,-0.169887,0.116287,-0.0511556,0.220541,-0.0799958,0.186575,-0.0319533,0.50016,0.322772,0.715499,-9.4081,-0.725195,-0.447265,0.197193,0.322772,0.715499,0.385641,
8.05823,-110.947,-7.81533,-70.6684,-0.372838,0.443861,-0.69288,0.428832,0.086952,-0.184322,-0.00740332,-1.70324,8.5676,-3.19878,0.0302848,-0.419536,0.344822,19.785,100.013,0.025001,0.124275,-0.266993,0.0322172,-0.0444932,0.217027,-0.0757119,0.188241,-0.0299256,0.509411,-0.0114448,0.479891,-9.29013,-0.371476,-0.588122,0.0131766,-0.0114448,0.479891,0.503616,
8.08351,-110.947,-7.81533,-70.6684,-0.372838,0.443861,-0.69288,0.428832,0.086952,-0.184322,-0.00740332,-1.70324,8.5676,-3.19878,0.0302848,-0.419536,0.344822,19.785,100.013,0.025001,0.124275,-0.266993,0.0322172,-0.0444932,0.217027,-0.0757119,0.188241,-0.0299256,0.509411,-0.0114448,0.479891,-9.29013,-0.371476,-0.588122,0.0131766,-0.0114448,0.479891,0.503616,
8.10876,-110.718,-7.91779,-70.5769,-0.373962,0.442116,-0.692624,0.430067,0.0837612,-0.171415,-0.0157747,-1.23545,8.51432,-2.95903,0.0326267,-0.42198,0.343659,19.78,100.008,0.024999,0.125075,-0.253504,0.0111754,-0.035846,0.213001,-0.0780282,0.185422,-0.0292387,0.511856,0.0317328,-0.0312392,-9.09802,0.11366,-0.633995,0.266742,0.0317328,-0.0312392,0.695727,
8.13402,-110.718,-7.91779,-70.5769,-0.373962,0.442116,-0.692624,0.430067,0.0837612,-0.171415,-0.0157747,-1.23545,8.51432,-2.95903,0.0326267,-0.42198,0.343659,19.78,100.008,0.024999,0.125075,-0.253504,0.0111754,-0.035846,0.213001,-0.0780282,0.185422,-0.0292387,0.511856,0.0317328,-0.0312392,-9.09802,0.11366,-0.633995,0.266742,0.0317328,-0.0312392,0.695727,
8.15932,-110.029,-8.227,-70.4738,-0.377959,0.43789,-0.691187,0.433197,0.0764818,-0.388193,-0.0319565,-1.1056,9.18442,-3.11945,0.0349331,-0.419509,0.347593,19.78,100.008,0.024999,0.0995491,-0.467111,-0.00691088,-0.0273502,0.228883,-0.0680448,0.189283,-0.0278875,0.511295,0.0213108,-0.320309,-9.75725,0.295839,0.0489155,0.120296,0.0213108,-0.320309,0.036499,
8.18457,-109.313,-8.62546,-70.4297,-0.382746,0.433495,-0.68962,0.435903,-0.0112059,-0.06506,-0.081337,-2.29912,8.80851,-3.69025,0.0464936,-0.413364,0.347891,19.78,100.008,0.024999,0.0378988,-0.256168,-0.0531641,-0.0430635,0.222546,-0.0960573,0.188574,-0.0343798,0.507265,-0.218105,0.969702,-9.77271,-0.83031,-0.315093,-0.446807,-0.218105,0.969702,0.0210352,
8.20982,-109.313,-8.62546,-70.4297,-0.382746,0.433495,-0.68962,0.435903,-0.0112059,-0.06506,-0.081337,-2.29912,8.80851,-3.69025,0.0464936,-0.413364,0.347891,19.78,100.008,0.024999,0.0378988,-0.256168,-0.0531641,-0.0430635,0.222546,-0.0960573,0.188574,-0.0343798,0.507265,-0.218105,0.969702,-9.77271,-0.83031,-0.315093,-0.446807,-0.218105,0.969702,0.0210352,
8.23508,-109.056,-9.31347,-70.4545,-0.387636,0.429728,-0.690239,0.43433,0.0313997,-0.321599,-0.260048,-0.0428795,9.00095,-4.89304,0.0464276,-0.406049,0.345137,19.765,100.008,0.025,0.0389672,-0.372747,-0.318653,-0.0244655,0.224524,-0.117875,0.190385,-0.0289485,0.499066,-2.03297,-0.985603,-9.99282,1.5421,-0.106774,-1.65968,-2.03297,-0.985603,-0.199073,
8.26041,-109.056,-9.31347,-70.4545,-0.387636,0.429728,-0.690239,0.43433,0.0313997,-0.321599,-0.260048,-0.0428795,9.00095,-4.89304,0.0464276,-0.406049,0.345137,19.765,100.008,0.025,0.0389672,-0.372747,-0.318653,-0.0244655,0.224524,-0.117875,0.190385,-0.0289485,0.499066,-2.03297,-0.985603,-9.99282,1.5421,-0.106774,-1.65968,-2.03297,-0.985603,-0.199073,
8.2857,-108.753,-9.78529,-70.4912,-0.391518,0.42681,-0.690103,0.43394,-0.0163203,-0.255129,-0.220276,1.1619,8.95591,-6.44994,0.0511806,-0.418236,0.348165,19.78,99.996,0.025,0.0146547,-0.445139,-0.314767,0.0248523,0.22473,-0.142448,0.190178,-0.0262066,0.511767,-3.8719,-1.79638,-10.2441,2.82642,-0.141271,-3.22689,-3.8719,-1.79638,-0.450356,
8.31103,-108.753,-9.78529,-70.4912,-0.391518,0.42681,-0.690103,0.43394,-0.0163203,-0.255129,-0.220276,1.1619,8.95591,-6.44994,0.0511806,-0.418236,0.348165,19.78,99.996,0.025,0.0146547,-0.445139,-0.314767,0.0248523,0.22473,-0.142448,0.190178,-0.0262066,0.511767,-3.8719,-1.79638,-10.2441,2.82642,-0.141271,-3.22689,-3.8719,-1.79638,-0.450356,
8.33629,-108.932,-10.5295,-70.5557,-0.395199,0.42447,-0.69233,0.429328,-0.00958359,0.115106,-0.34727,0.365269,9.87501,-11.8113,0.0604625,-0.416978,0.349781,19.79,100.013,0.025001,-0.0385921,0.0853697,-0.407106,-0.00488999,0.244508,-0.26333,0.191619,-0.0301132,0.512102,-8.32742,-0.0818644,-12.9539,2.155,0.795361,-8.60596,-8.32742,-0.0818644,-3.16016,
8.36156,-111.003,-10.8585,-70.3881,-0.388693,0.429068,-0.701357,0.415833,-0.205171,1.11979,-0.310234,8.73484,13.7027,-18.7539,0.0569347,-0.412109,0.34825,19.78,100.008,0.025,-0.195722,1.32166,-0.428782,0.177319,0.323613,-0.435785,0.191181,-0.031372,0.506773,-16.5698,-6.70224,-17.2132,10.5798,4.6423,-15.5255,-16.5698,-6.70224,-7.41943,
8.38702,-111.003,-10.8585,-70.3881,-0.388693,0.429068,-0.701357,0.415833,-0.205171,1.11979,-0.310234,8.73484,13.7027,-18.7539,0.0569347,-0.412109,0.34825,19.78,100.008,0.025,-0.195722,1.32166,-0.428782,0.177319,0.323613,-0.435785,0.191181,-0.031372,0.506773,-16.5698,-6.70224,-17.2132,10.5798,4.6423,-15.5255,-16.5698,-6.70224,-7.41943,
8.41245,-112.904,-10.6281,-70.3879,-0.380217,0.436451,-0.707651,0.405186,-0.244507,1.32425,-0.271881,11.6252,11.8825,-23.2446,0.0500367,-0.419435,0.353348,19.78,100.008,0.025001,-0.351697,1.83118,-0.380129,0.265698,0.324216,-0.545624,0.194657,-0.0327779,0.514119,-22.3062,-6.78248,-16.5253,13.4315,2.81523,-20.0137,-22.3062,-6.78248,-6.73154,
8.43791,-112.904,-10.6281,-70.3879,-0.380217,0.436451,-0.707651,0.405186,-0.244507,1.32425,-0.271881,11.6252,11.8825,-23.2446,0.0500367,-0.419435,0.353348,19.78,100.008,0.025001,-0.351697,1.83118,-0.380129,0.265698,0.324216,-0.545624,0.194657,-0.0327779,0.514119,-22.3062,-6.78248,-16.5253,13.4315,2.81523,-20.0137,-22.3062,-6.78248,-6.73154,
8.46341,-112.619,-11.6384,-69.2774,-0.383078,0.424225,-0.713008,0.406083,1.30733,-2.73015,-0.257539,15.3068,5.03691,-28.1971,0.052233,-0.403507,0.3609,19.78,99.996,0.024999,1.22908,-2.02308,-0.367396,0.448583,0.169425,-0.699859,0.199306,-0.0280751,0.505257,-29.6048,-7.11654,-11.2985,17.2825,-3.9349,-24.8029,-29.6048,-7.11654,-1.50474,
8.48881,-101.504,-16.5811,-66.7315,-0.437586,0.34527,-0.690186,0.461466,1.89811,-4.22503,-0.0958792,10.7249,-7.86032,-24.0938,0.136769,-0.370049,0.399716,19.78,99.996,0.025001,2.80492,-6.38714,-0.158636,0.321584,-0.0940411,-0.628649,0.218772,-0.0333069,0.516183,-26.9129,-5.68137,0.859056,13.5198,-16.4834,-20.3857,-26.9129,-5.68137,10.6528,
8.51422,-101.504,-16.5811,-66.7315,-0.437586,0.34527,-0.690186,0.461466,1.89811,-4.22503,-0.0958792,10.7249,-7.86032,-24.0938,0.136769,-0.370049,0.399716,19.78,99.996,0.025001,2.80492,-6.38714,-0.158636,0.321584,-0.0940411,-0.628649,0.218772,-0.0333069,0.516183,-26.9129,-5.68137,0.859056,13.5198,-16.4834,-20.3857,-26.9129,-5.68137,10.6528,
8.53967,-91.392,-20.7562,-65.2614,-0.479037,0.273614,-0.660676,0.509083,1.58017,-3.1658,0.13064,-5.87611,-19.1941,-15.7653,0.225844,-0.328167,0.411222,19.78,99.996,0.025001,2.26738,-5.14472,0.17409,0.112961,-0.267826,-0.196098,0.234999,-0.0502965,0.519662,-22.1174,9.87484,8.04954,-2.40529,-27.5118,-11.9328,-22.1174,9.87484,17.8433,
8.56507,-91.392,-20.7562,-65.2614,-0.479037,0.273614,-0.660676,0.509083,1.58017,-3.1658,0.13064,-5.87611,-19.1941,-15.7653,0.225844,-0.328167,0.411222,19.78,99.996,0.025001,2.26738,-5.14472,0.17409,0.112961,-0.267826,-0.196098,0.234999,-0.0502965,0.519662,-22.1174,9.87484,8.04954,-2.40529,-27.5118,-11.9328,-22.1174,9.87484,17.8433,
8.59049,-87.3798,-22.7071,-64.7706,-0.494549,0.242526,-0.648148,0.52584,1.3301,-2.8659,-0.145789,-0.348962,0.125498,1.18633,0.265085,-0.298674,0.41985,19.78,99.996,0.025,1.97933,-4.20767,-0.163962,0.0155806,-0.0353527,0.00427572,0.255482,-0.0595429,0.516657,1.10384,0.524297,0.227036,3.43163,-8.04731,5.03728,1.10384,0.524297,10.0208,
8.61592,-87.3798,-22.7071,-64.7706,-0.494549,0.242526,-0.648148,0.52584,1.3301,-2.8659,-0.145789,-0.348962,0.125498,1.18633,0.265085,-0.298674,0.41985,19.78,99.996,0.025,1.97933,-4.20767,-0.163962,0.0155806,-0.0353527,0.00427572,0.255482,-0.0595429,0.516657,1.10384,0.524297,0.227036,3.43163,-8.04731,5.03728,1.10384,0.524297,10.0208,
8.64135,-79.5746,-26.8018,-64.217,-0.522945,0.18003,-0.621958,0.554334,1.31057,-2.81947,-0.270726,0.051368,0.0881005,0.839471,0.329969,-0.282623,0.412803,19.78,99.984,0.025001,1.90323,-4.05435,-0.324478,-0.00383627,0.00281614,0.0200483,0.26255,-0.0521607,0.536199,0.766086,0.225371,0.278268,4.46743,-7.78327,4.64176,0.766086,0.225371,10.072,
8.66681,-71.8317,-31.1011,-64.3061,-0.548367,0.11693,-0.593998,0.576877,1.24412,-2.75015,-0.363541,-0.106734,0.181536,0.752534,0.395864,-0.25328,0.376913,19.78,99.996,0.025,1.80787,-3.96397,-0.464817,-0.0035693,0.00197656,0.0179062,0.260984,-0.0581771,0.539838,0.664402,0.402668,0.0841667,4.95222,-7.37525,4.38838,0.664402,0.402668,9.87791,
8.69227,-71.8317,-31.1011,-64.3061,-0.548367,0.11693,-0.593998,0.576877,1.24412,-2.75015,-0.363541,-0.106734,0.181536,0.752534,0.395864,-0.25328,0.376913,19.78,99.996,0.025,1.80787,-3.96397,-0.464817,-0.0035693,0.00197656,0.0179062,0.260984,-0.0581771,0.539838,0.664402,0.402668,0.0841667,4.95222,-7.37525,4.38838,0.664402,0.402668,9.87791,
8.71768,-64.074,-35.4804,-65.1315,-0.570816,0.0542694,-0.564838,0.59345,1.16196,-2.64809,-0.450347,-0.245065,0.0662186,0.423625,0.452426,-0.219073,0.341878,19.78,99.996,0.025001,1.68765,-3.83705,-0.592493,-0.000796276,0.00292668,0.0165265,0.270258,-0.0572009,0.541527,0.253497,0.421325,-0.0460945,5.43946,-7.16947,3.77748,0.253497,0.421325,9.74765,
8.7431,-64.074,-35.4804,-65.1315,-0.570816,0.0542694,-0.564838,0.59345,1.16196,-2.64809,-0.450347,-0.245065,0.0662186,0.423625,0.452426,-0.219073,0.341878,19.78,99.996,0.025001,1.68765,-3.83705,-0.592493,-0.000796276,0.00292668,0.0165265,0.270258,-0.0572009,0.541527,0.253497,0.421325,-0.0460945,5.43946,-7.16947,3.77748,0.253497,0.421325,9.74765,
8.76857,-60.184,-37.6518,-65.8359,-0.580859,0.0235227,-0.550104,0.599529,1.1135,-2.58901,-0.488887,-0.274538,0.141095,0.746872,0.478922,-0.197095,0.322894,19.78,99.996,0.024999,1.61623,-3.74897,-0.648235,-0.00179358,0.00268007,0.0172937,0.279373,-0.0572621,0.539579,0.479502,0.649935,-0.0275666,5.70808,-6.93355,3.92101,0.479502,0.649935,9.76618,
8.79398,-52.4156,-41.9159,-67.7632,-0.598219,-0.036508,-0.521282,0.607509,1.02477,-2.43097,-0.585887,0.00250089,0.231157,0.559317,0.526283,-0.176474,0.265702,19.78,99.996,0.025,1.496,-3.52967,-0.785779,-0.00512588,0.00604117,0.013843,0.273308,-0.0613622,0.547952,0.481665,0.366435,-4.10974e-05,6.54511,-6.51462,3.31727,0.481665,0.366435,9.7937,
8.8194,-52.4156,-41.9159,-67.7632,-0.598219,-0.036508,-0.521282,0.607509,1.02477,-2.43097,-0.585887,0.00250089,0.231157,0.559317,0.526283,-0.176474,0.265702,19.78,99.996,0.025,1.496,-3.52967,-0.785779,-0.00512588,0.00604117,0.013843,0.273308,-0.0613622,0.547952,0.481665,0.366435,-4.10974e-05,6.54511,-6.51462,3.31727,0.481665,0.366435,9.7937,
8.84487,-44.5806,-46.0314,-70.4284,-0.612235,-0.0942572,-0.493828,0.610261,0.91554,-2.25995,-0.695119,-0.714479,0.273568,0.566429,0.559652,-0.147272,0.222119,19.78,100.008,0.025,1.35179,-3.31146,-0.921545,-0.0115562,0.00718822,0.0133312,0.279743,-0.0511088,0.550789,0.120494,0.759224,-0.561447,6.33428,-6.13304,2.84414,0.120494,0.759224,9.2323,
8.8703,-44.5806,-46.0314,-70.4284,-0.612235,-0.0942572,-0.493828,0.610261,0.91554,-2.25995,-0.695119,-0.714479,0.273568,0.566429,0.559652,-0.147272,0.222119,19.78,100.008,0.025,1.35179,-3.31146,-0.921545,-0.0115562,0.00718822,0.0133312,0.279743,-0.0511088,0.550789,0.120494,0.759224,-0.561447,6.33428,-6.13304,2.84414,0.120494,0.759224,9.2323,
8.89575,-36.7445,-50.0326,-73.868,-0.623307,-0.14916,-0.469457,0.60733,0.776131,-2.11677,-0.806329,-0.307614,0.352443,0.466857,0.588235,-0.103508,0.162455,19.78,99.996,0.024999,1.15,-3.06766,-1.1024,-0.00882371,0.00794369,0.0134557,0.290149,-0.0577583,0.543694,0.296807,0.460291,-0.369912,7.19841,-5.69087,2.21483,0.296807,0.460291,9.42383,
8.92119,-36.7445,-50.0326,-73.868,-0.623307,-0.14916,-0.469457,0.60733,0.776131,-2.11677,-0.806329,-0.307614,0.352443,0.466857,0.588235,-0.103508,0.162455,19.78,99.996,0.024999,1.15,-3.06766,-1.1024,-0.00882371,0.00794369,0.0134557,0.290149,-0.0577583,0.543694,0.296807,0.460291,-0.369912,7.19841,-5.69087,2.21483,0.296807,0.460291,9.42383,
8.94662,-32.647,-51.9561,-75.9931,-0.628124,-0.175729,-0.457896,0.604079,0.716881,-2.06903,-0.840093,-0.400682,0.39234,0.477046,0.598632,-0.09991,0.143261,19.78,100.02,0.025001,1.06246,-2.99546,-1.15577,-0.00841139,0.00883673,0.0121217,0.285296,-0.0464216,0.552555,0.268876,0.490226,-0.478993,7.31227,-5.46375,1.93788,0.268876,0.490226,9.31475,
8.97205,-23.8436,-55.5777,-81.2211,-0.636538,-0.227337,-0.435656,0.594425,0.607043,-1.99743,-0.906901,-0.405908,0.438744,0.491392,0.61109,-0.0720881,0.0820355,19.77,100.004,0.025001,0.90333,-2.88652,-1.24926,-0.00892678,0.0110057,0.0121296,0.281086,-0.0476185,0.551435,0.284076,0.47861,-0.537547,7.67289,-5.03269,1.33635,0.284076,0.47861,9.2562,
8.99748,-23.8436,-55.5777,-81.2211,-0.636538,-0.227337,-0.435656,0.594425,0.607043,-1.99743,-0.906901,-0.405908,0.438744,0.491392,0.61109,-0.0720881,0.0820355,19.77,100.004,0.025001,0.90333,-2.88652,-1.24926,-0.00892678,0.0110057,0.0121296,0.281086,-0.0476185,0.551435,0.284076,0.47861,-0.537547,7.67289,-5.03269,1.33635,0.284076,0.47861,9.2562,
9.02295,-14.0746,-58.8417,-87.8806,-0.6432,-0.276995,-0.415136,0.580714,0.489408,-1.88838,-1.00476,-1.00823,1.30401,0.632629,0.621179,-0.0381382,0.0257956,19.78,100.008,0.025001,0.742311,-2.75345,-1.37521,-0.022446,0.0279834,0.0117634,0.285251,-0.0463942,0.551781,0.721705,0.52054,-1.52492,7.37268,-3.75984,0.820031,0.721705,0.52054,8.26883,
9.04837,-14.0746,-58.8417,-87.8806,-0.6432,-0.276995,-0.415136,0.580714,0.489408,-1.88838,-1.00476,-1.00823,1.30401,0.632629,0.621179,-0.0381382,0.0257956,19.78,100.008,0.025001,0.742311,-2.75345,-1.37521,-0.022446,0.0279834,0.0117634,0.285251,-0.0463942,0.551781,0.721705,0.52054,-1.52492,7.37268,-3.75984,0.820031,0.721705,0.52054,8.26883,
9.07385,-3.25711,-61.7814,-96.132,-0.647883,-0.324812,-0.398072,0.562392,0.382758,-1.93827,-1.002,0.630991,3.47231,0.697565,0.620868,-0.010311,-0.0267982,19.785,100.025,0.025,0.553869,-2.62066,-1.49068,0.00384998,0.0935213,0.0195329,0.280106,-0.0415253,0.553279,3.41897,0.128614,-1.11168,9.26075,-1.13204,0.202897,3.41897,0.128614,8.68207,
9.0993,4.05556,-62.4913,-101.966,-0.652292,-0.349853,-0.383718,0.552158,0.477644,-2.52884,-0.749499,1.46358,4.34977,1.33799,0.617219,0.00417451,-0.0584357,19.78,100.02,0.025,0.635333,-3.2676,-1.20696,0.0369324,0.104104,0.025807,0.281368,-0.0382278,0.551147,4.65566,0.738177,-0.795447,10.1501,-0.0755014,0.400103,4.65566,0.738177,8.9983,
