Timestamp,Yaw,Pitch,Roll,Qtn[0], Qtn[1], Qtn[2], Qtn[3],Rate X,Rate Y,Rate Z,Accel X,Accel Y,Accel Z,Mag X,Mag Y,Mag Z,Temp,Pres,dTime,dTheta X,dTheta Y,dTheta Z,dVel X,dVel Y,dVel Z,MagNed X,MagNed Y,MagNed Z,AccelNed X,AccelNed Y,AccelNed Z,LinearAccel X,LinearAccel Y,LinearAccel Z,LinearAccelNed X,LinearAccelNed Y,LinearAccelNed Z
2867.58,38.302,-87.0668,30.3936,0.397581,-0.56556,0.400077,0.601672,0.0162921,-0.00200912,0.000675232,-9.78532,-0.255317,-0.448951,0.384684,-0.119737,0.0526843,32.67,101.172,0.025001,-0.00248654,0.00172893,0.0101597,-0.244676,-0.00654912,-0.0117089,0.107846,-0.0803977,0.383406,0.0074717,0.014709,-9.79893,-0.00441172,-0.0017413,-0.0166304,0.0074717,0.014709,-0.00518513
2867.6,38.302,-87.0668,30.3936,0.397581,-0.56556,0.400077,0.601672,0.0162921,-0.00200912,0.000675232,-9.78532,-0.255317,-0.448951,0.384684,-0.119737,0.0526843,32.67,101.172,0.025001,-0.00248654,0.00172893,0.0101597,-0.244676,-0.00654912,-0.0117089,0.107846,-0.0803977,0.383406,0.0074717,0.014709,-9.79893,-0.00441172,-0.0017413,-0.0166304,0.0074717,0.014709,-0.00518513
2867.63,38.31,-87.0681,30.3802,0.397551,-0.565588,0.400053,0.601681,0.0149703,0.000147071,0.00155848,-9.78611,-0.218969,-0.444035,0.382609,-0.130941,0.0526959,32.67,101.172,0.025001,-0.00383617,0.00172469,0.0096591,-0.244529,-0.00588449,-0.0108782,0.118173,-0.0845634,0.381047,-0.0279055,0.0234021,-9.79856,-0.00518866,0.0343727,-0.0118818,-0.0279055,0.0234021,-0.00481701
2867.65,38.31,-87.0681,30.3802,0.397551,-0.565588,0.400053,0.601681,0.0149703,0.000147071,0.00155848,-9.78611,-0.218969,-0.444035,0.382609,-0.130941,0.0526959,32.67,101.172,0.025001,-0.00383617,0.00172469,0.0096591,-0.244529,-0.00588449,-0.0108782,0.118173,-0.0845634,0.381047,-0.0279055,0.0234021,-9.79856,-0.00518866,0.0343727,-0.0118818,-0.0279055,0.0234021,-0.00481701
2867.68,38.334,-87.0699,30.3517,0.397521,-0.565615,0.400038,0.601687,0.0345607,0.00866101,0.00482257,-8.99727,-0.176951,0.241008,0.383648,-0.124861,0.0469996,32.67,101.161,0.025,-0.00246981,0.00432122,0.00782042,-0.243625,-0.00571738,-0.00723826,0.114598,-0.077024,0.381995,-0.283415,-0.574021,-8.97944,0.783673,0.0760338,0.673044,-0.283415,-0.574021,0.814302
2867.7,38.3312,-87.0716,30.3513,0.397506,-0.565637,0.400021,0.601687,0.0189285,-0.00190528,0.00402001,-10.4929,0.0387303,-0.750681,0.3837,-0.120723,0.0549194,32.67,101.184,0.024999,-0.00367104,0.00195183,0.0108955,-0.247003,-0.0070139,-0.0170894,0.107861,-0.0829018,0.382504,-0.184346,0.380412,-10.5113,-0.711932,0.291562,-0.318899,-0.184346,0.380412,-0.717535
2867.73,38.3312,-87.0716,30.3513,0.397506,-0.565637,0.400021,0.601687,0.0189285,-0.00190528,0.00402001,-10.4929,0.0387303,-0.750681,0.3837,-0.120723,0.0549194,32.67,101.184,0.024999,-0.00367104,0.00195183,0.0108955,-0.247003,-0.0070139,-0.0170894,0.107861,-0.0829018,0.382504,-0.184346,0.380412,-10.5113,-0.711932,0.291562,-0.318899,-0.184346,0.380412,-0.717535
2867.76,38.2518,-87.0734,30.427,0.397513,-0.565659,0.399977,0.601691,0.0117124,-0.00305537,-0.00214183,-9.62651,-0.218275,-0.188867,0.383607,-0.128934,0.0504511,32.67,101.172,0.024999,-0.00260402,-0.000689058,0.00923165,-0.245449,-0.00658258,-0.0124546,0.117124,-0.0817692,0.381994,-0.11426,-0.207951,-9.62792,0.154458,0.0349731,0.242318,-0.11426,-0.207951,0.16583
2867.78,38.2518,-87.0734,30.427,0.397513,-0.565659,0.399977,0.601691,0.0117124,-0.00305537,-0.00214183,-9.62651,-0.218275,-0.188867,0.383607,-0.128934,0.0504511,32.67,101.172,0.024999,-0.00260402,-0.000689058,0.00923165,-0.245449,-0.00658258,-0.0124546,0.117124,-0.0817692,0.381994,-0.11426,-0.207951,-9.62792,0.154458,0.0349731,0.242318,-0.11426,-0.207951,0.16583
2867.81,38.212,-87.0746,30.4591,0.397485,-0.565693,0.399926,0.601711,0.0168436,-0.00151421,0.000111669,-9.85987,-0.196429,-0.533287,0.384678,-0.120733,0.0572429,32.67,101.172,0.025,-0.0101161,0.000720606,0.00982064,-0.244498,-0.00444701,-0.0128436,0.107058,-0.0851007,0.383571,-0.0190218,0.113588,-9.87557,-0.0788935,0.0569529,-0.102427,-0.0190218,0.113588,-0.0818233
2867.83,38.212,-87.0746,30.4591,0.397485,-0.565693,0.399926,0.601711,0.0168436,-0.00151421,0.000111669,-9.85987,-0.196429,-0.533287,0.384678,-0.120733,0.0572429,32.67,101.172,0.025,-0.0101161,0.000720606,0.00982064,-0.244498,-0.00444701,-0.0128436,0.107058,-0.0851007,0.383571,-0.0190218,0.113588,-9.87557,-0.0788935,0.0569529,-0.102427,-0.0190218,0.113588,-0.0818233
2867.86,38.1761,-87.0767,30.4941,0.397493,-0.56571,0.399909,0.601702,0.02119,-0.00249339,0.000717473,-9.79463,-0.195715,-0.451055,0.384572,-0.129982,0.0505101,32.67,101.172,0.024999,-0.00333087,0.00165672,0.00900642,-0.244358,-0.00620475,-0.0128579,0.118101,-0.0822254,0.382927,-0.0467978,0.0398399,-9.80678,-0.0136325,0.0577382,-0.020675,-0.0467978,0.0398399,-0.0130291
2867.88,38.1572,-87.0763,30.5107,0.397487,-0.565714,0.399892,0.601713,0.00791485,0.00112858,2.94E-05,-9.74082,-0.341095,-0.479682,0.382665,-0.125856,0.0480974,32.67,101.161,0.025001,-0.00270851,0.00355563,0.00900836,-0.24515,-0.00618382,-0.00983647,0.115061,-0.0785439,0.381021,0.100933,0.0152969,-9.75805,0.040178,-0.0874705,-0.0492974,0.100933,0.0152969,0.0356941
2867.91,38.1572,-87.0763,30.5107,0.397487,-0.565714,0.399892,0.601713,0.00791485,0.00112858,2.94E-05,-9.74082,-0.341095,-0.479682,0.382665,-0.125856,0.0480974,32.67,101.161,0.025001,-0.00270851,0.00355563,0.00900836,-0.24515,-0.00618382,-0.00983647,0.115061,-0.0785439,0.381021,0.100933,0.0152969,-9.75805,0.040178,-0.0874705,-0.0492974,0.100933,0.0152969,0.0356941
2867.93,38.1329,-87.0799,30.5293,0.397466,-0.565756,0.399855,0.601712,0.0170885,-0.000300008,0.00239552,-9.78504,-0.114105,-0.557486,0.385603,-0.124898,0.0493727,32.67,101.172,0.025,-0.00715785,0.00279092,0.010148,-0.244501,-0.00699871,-0.0108874,0.113803,-0.0793208,0.384036,-0.0835318,0.169499,-9.79975,-0.00400983,0.139351,-0.127705,-0.0835318,0.169499,-0.00600243
2867.96,38.1329,-87.0799,30.5293,0.397466,-0.565756,0.399855,0.601712,0.0170885,-0.000300008,0.00239552,-9.78504,-0.114105,-0.557486,0.385603,-0.124898,0.0493727,32.67,101.172,0.025,-0.00715785,0.00279092,0.010148,-0.244501,-0.00699871,-0.0108874,0.113803,-0.0793208,0.384036,-0.0835318,0.169499,-9.79975,-0.00400983,0.139351,-0.127705,-0.0835318,0.169499,-0.00600243
2867.98,38.0494,-87.0814,30.6072,0.397464,-0.565783,0.399801,0.601723,0.0171083,-0.000354057,-0.000789479,-9.74065,-0.121685,-0.48766,0.382763,-0.117603,0.0593886,32.67,101.172,0.025001,-0.00535613,0.00271791,0.00914487,-0.244562,-0.00528208,-0.0107096,0.103261,-0.0861127,0.38182,-0.100231,0.103855,-9.75254,0.0403923,0.132214,-0.0584631,-0.100231,0.103855,0.0412054
2868.01,37.9721,-87.0821,30.6818,0.397474,-0.565796,0.399763,0.60173,0.0199213,-0.0007328,0.000901529,-9.76686,-0.274467,-0.490157,0.383566,-0.132065,0.0402472,32.68,101.165,0.025001,-0.00121131,0.00269073,0.00935851,-0.244894,-0.00487284,-0.0112157,0.123714,-0.0735704,0.3814,0.0415454,0.0502707,-9.78279,0.0141881,-0.0200699,-0.0613938,0.0415454,0.0502707,0.0109606
2868.03,37.9721,-87.0821,30.6818,0.397474,-0.565796,0.399763,0.60173,0.0199213,-0.0007328,0.000901529,-9.76686,-0.274467,-0.490157,0.383566,-0.132065,0.0402472,32.68,101.165,0.025001,-0.00121131,0.00269073,0.00935851,-0.244894,-0.00487284,-0.0112157,0.123714,-0.0735704,0.3814,0.0415454,0.0502707,-9.78279,0.0141881,-0.0200699,-0.0613938,0.0415454,0.0502707,0.0109606
2868.06,37.9377,-87.0834,30.7122,0.397464,-0.565818,0.399732,0.601737,0.0131888,-0.000106012,-8.23E-05,-9.79846,-0.166287,-0.447394,0.383728,-0.117717,0.0446556,32.67,101.184,0.024999,-0.00455226,0.0014677,0.00932474,-0.244608,-0.00719387,-0.0116966,0.108757,-0.0724612,0.382125,-0.075932,0.0492565,-9.80966,-0.0173996,0.0882205,-0.0189609,-0.075932,0.0492565,-0.015914
2868.08,37.9377,-87.0834,30.7122,0.397464,-0.565818,0.399732,0.601737,0.0131888,-0.000106012,-8.23E-05,-9.79846,-0.166287,-0.447394,0.383728,-0.117717,0.0446556,32.67,101.184,0.024999,-0.00455226,0.0014677,0.00932474,-0.244608,-0.00719387,-0.0116966,0.108757,-0.0724612,0.382125,-0.075932,0.0492565,-9.80966,-0.0173996,0.0882205,-0.0189609,-0.075932,0.0492565,-0.015914
2868.11,37.8924,-87.0848,30.751,0.397445,-0.565847,0.399686,0.601753,0.0173369,0.00045125,5.21E-05,-9.79024,-0.220061,-0.451755,0.381743,-0.121693,0.0559682,32.675,101.176,0.024999,-0.00602935,0.0020167,0.00961509,-0.244515,-0.00514049,-0.0111004,0.108262,-0.0845284,0.380531,-0.0240019,0.0343717,-9.80303,-0.00916645,0.0346308,-0.0236742,-0.0240019,0.0343717,-0.00928879
2868.13,37.8924,-87.0848,30.751,0.397445,-0.565847,0.399686,0.601753,0.0173369,0.00045125,5.21E-05,-9.79024,-0.220061,-0.451755,0.381743,-0.121693,0.0559682,32.675,101.176,0.024999,-0.00602935,0.0020167,0.00961509,-0.244515,-0.00514049,-0.0111004,0.108262,-0.0845284,0.380531,-0.0240019,0.0343717,-9.80303,-0.00916645,0.0346308,-0.0236742,-0.0240019,0.0343717,-0.00928879
2868.16,37.8581,-87.0858,30.7822,0.39744,-0.565864,0.399659,0.601757,0.0205286,-0.00123128,-0.000798127,-9.78863,-0.266814,-0.406807,0.382644,-0.127918,0.0458432,32.67,101.161,0.025,-0.0025276,0.00224869,0.00898428,-0.244827,-0.00586416,-0.0112934,0.117767,-0.0773662,0.380823,0.00323884,-0.0241197,-9.80068,-0.00755157,-0.0119899,0.0209667,0.00323884,-0.0241197,-0.00693798
2868.18,37.8512,-87.0865,30.7849,0.397421,-0.565882,0.399637,0.601768,0.0128782,0.000279479,0.000402454,-9.78209,-0.277642,-0.507354,0.383692,-0.121778,0.0503811,32.67,101.172,0.025001,-0.0045843,0.00284109,0.0101455,-0.24437,-0.00649947,-0.0111632,0.110437,-0.0793292,0.382228,0.0501842,0.0657866,-9.79882,-0.00100281,-0.0228497,-0.0796805,0.0501842,0.0657866,-0.00507545
2868.22,37.8512,-87.0865,30.7849,0.397421,-0.565882,0.399637,0.601768,0.0128782,0.000279479,0.000402454,-9.78209,-0.277642,-0.507354,0.383692,-0.121778,0.0503811,32.67,101.172,0.025001,-0.0045843,0.00284109,0.0101455,-0.24437,-0.00649947,-0.0111632,0.110437,-0.0793292,0.382228,0.0501842,0.0657866,-9.79882,-0.00100281,-0.0228497,-0.0796805,0.0501842,0.0657866,-0.00507545
2868.24,37.8316,-87.0881,30.7994,0.3974,-0.565909,0.399604,0.601777,0.0166367,-0.00183203,0.00281942,-9.79658,-0.235249,-0.539352,0.384659,-0.122804,0.0538517,32.67,101.172,0.025,-0.00536426,0.00266048,0.0100258,-0.244725,-0.00655783,-0.0121204,0.110158,-0.0829232,0.383317,0.0219061,0.110826,-9.81358,-0.0154794,0.0195223,-0.11196,0.0219061,0.110826,-0.0198374
2868.27,37.8316,-87.0881,30.7994,0.3974,-0.565909,0.399604,0.601777,0.0166367,-0.00183203,0.00281942,-9.79658,-0.235249,-0.539352,0.384659,-0.122804,0.0538517,32.67,101.172,0.025,-0.00536426,0.00266048,0.0100258,-0.244725,-0.00655783,-0.0121204,0.110158,-0.0829232,0.383317,0.0219061,0.110826,-9.81358,-0.0154794,0.0195223,-0.11196,0.0219061,0.110826,-0.0198374
2868.29,37.7996,-87.091,30.826,0.397384,-0.565947,0.399567,0.601778,0.0176298,-0.00123065,0.00126146,-9.80087,-0.197121,-0.487793,0.383578,-0.132007,0.0504811,32.67,101.172,0.025,-0.0038926,0.0016577,0.0107881,-0.245008,-0.00570933,-0.0114242,0.119886,-0.0832082,0.381851,-0.0322148,0.0771283,-9.81462,-0.0197418,0.0575808,-0.0609679,-0.0322148,0.0771283,-0.0208759
2868.32,37.7712,-87.0927,30.8511,0.397376,-0.565968,0.399541,0.60178,0.0173318,-0.00174316,0.001421,-10.3202,-0.328197,-0.447053,0.382776,-0.116618,0.0536931,32.67,101.172,0.025001,-0.000596874,0.00222391,0.0105,-0.249615,-0.00648091,-0.0117639,0.104355,-0.0806269,0.381588,0.0542428,-0.0243927,-10.335,-0.539092,-0.0734606,-0.0205932,0.0542428,-0.0243927,-0.541205
2868.34,37.7712,-87.0927,30.8511,0.397376,-0.565968,0.399541,0.60178,0.0173318,-0.00174316,0.001421,-10.3202,-0.328197,-0.447053,0.382776,-0.116618,0.0536931,32.67,101.172,0.025001,-0.000596874,0.00222391,0.0105,-0.249615,-0.00648091,-0.0117639,0.104355,-0.0806269,0.381588,0.0542428,-0.0243927,-10.335,-0.539092,-0.0734606,-0.0205932,0.0542428,-0.0243927,-0.541205
2868.37,36.115,-87.0085,32.4762,0.397707,-0.565523,0.398879,0.602419,0.0102748,0.0812939,-0.234362,-122.992,-0.5396,2.79583,0.383715,-0.119732,0.0503611,32.67,101.489,0.025,-0.02931,0.030397,-0.106525,-1.15086,-0.000344282,0.00299585,0.109241,-0.0788055,0.382054,-5.70102,-6.58136,-122.716,-113.211,-0.26516,3.22699,-5.70102,-6.58136,-112.923
2868.39,36.115,-87.0085,32.4762,0.397707,-0.565523,0.398879,0.602419,0.0102748,0.0812939,-0.234362,-122.992,-0.5396,2.79583,0.383715,-0.119732,0.0503611,32.67,101.489,0.025,-0.02931,0.030397,-0.106525,-1.15086,-0.000344282,0.00299585,0.109241,-0.0788055,0.382054,-5.70102,-6.58136,-122.716,-113.211,-0.26516,3.22699,-5.70102,-6.58136,-112.923
2868.42,35.4155,-87.0806,32.5612,0.394713,-0.568101,0.39561,0.604116,-0.0900606,0.147236,-0.0121492,-94.6839,4.92243,-3.46915,0.369184,-0.10922,0.0358759,32.67,101.127,0.024999,-0.376768,-0.0138759,-0.00172203,-2.40948,-0.0525137,0.0325965,0.103092,-0.0633385,0.367251,-7.19287,2.26698,-94.575,-84.9028,5.1909,-3.04874,-7.19287,2.26698,-84.7812
2868.44,32.7975,-87.0616,34.7189,0.393107,-0.569561,0.392499,0.605815,-0.0336487,-0.125767,-0.0566864,-98.6329,-5.41333,1.15115,0.336922,-0.115504,0.0468273,32.675,101.229,0.024999,-0.125216,-0.112516,-0.0327553,-2.41942,-0.0689696,-0.157217,0.103304,-0.0781028,0.33508,0.309222,-5.87404,-98.6128,-88.8521,-5.12739,1.5638,0.309222,-5.87404,-88.8191
2868.47,32.7975,-87.0616,34.7189,0.393107,-0.569561,0.392499,0.605815,-0.0336487,-0.125767,-0.0566864,-98.6329,-5.41333,1.15115,0.336922,-0.115504,0.0468273,32.675,101.229,0.024999,-0.125216,-0.112516,-0.0327553,-2.41942,-0.0689696,-0.157217,0.103304,-0.0781028,0.33508,0.309222,-5.87404,-98.6128,-88.8521,-5.12739,1.5638,0.309222,-5.87404,-88.8191
2868.49,28.3159,-87.2064,39.7595,0.397396,-0.568632,0.393959,0.602935,0.0606952,-0.142494,-0.101852,-101.398,-8.18164,5.79448,0.35128,-0.141358,0.0614626,32.67,101.218,0.025001,0.218175,-0.135228,-0.0662374,-2.51861,-0.0869461,-0.0037399,0.123212,-0.101702,0.348759,1.07479,-10.7749,-101.316,-91.6163,-7.87635,6.16143,1.07479,-10.7749,-91.5221
2868.52,28.3159,-87.2064,39.7595,0.397396,-0.568632,0.393959,0.602935,0.0606952,-0.142494,-0.101852,-101.398,-8.18164,5.79448,0.35128,-0.141358,0.0614626,32.67,101.218,0.025001,0.218175,-0.135228,-0.0662374,-2.51861,-0.0869461,-0.0037399,0.123212,-0.101702,0.348759,1.07479,-10.7749,-101.316,-91.6163,-7.87635,6.16143,1.07479,-10.7749,-91.5221
2868.54,29.0845,-87.1482,39.0568,0.397539,-0.568018,0.39448,0.603079,0.254068,0.0482641,0.0144235,-102.926,-1.93539,-6.2932,0.352061,-0.158785,0.0594077,32.67,101.048,0.025,0.0644367,0.072823,0.00219046,-2.57037,-0.128193,0.000538671,0.140501,-0.105773,0.348942,-0.342703,2.62709,-103.102,-93.1442,-1.62835,-5.9148,-0.342703,2.62709,-93.3084
2868.57,29.0845,-87.1482,39.0568,0.397539,-0.568018,0.39448,0.603079,0.254068,0.0482641,0.0144235,-102.926,-1.93539,-6.2932,0.352061,-0.158785,0.0594077,32.67,101.048,0.025,0.0644367,0.072823,0.00219046,-2.57037,-0.128193,0.000538671,0.140501,-0.105773,0.348942,-0.342703,2.62709,-103.102,-93.1442,-1.62835,-5.9148,-0.342703,2.62709,-93.3084
2868.59,28.1649,-87.0841,40.555,0.400897,-0.565647,0.397014,0.601419,0.161398,-0.0147574,-0.0570767,-104.081,-6.37641,-4.81264,0.353183,-0.14646,0.071845,32.67,101.059,0.025,0.183903,0.0275283,-0.0201138,-2.61934,-0.098194,-0.0567448,0.126192,-0.111645,0.350658,3.01163,-0.333588,-104.344,-94.3004,-6.05248,-4.4341,3.01163,-0.333588,-94.5499
2868.62,28.4019,-86.8879,41.4031,0.406618,-0.560625,0.40227,0.598782,0.375771,0.0459062,-0.0763823,-105.796,-5.57027,-2.75296,0.352221,-0.144443,0.0626788,32.67,101.059,0.025,0.563041,0.0881489,-0.0816433,-2.63922,-0.104239,-0.0713549,0.130683,-0.0996281,0.349068,1.11833,-2.07531,-105.952,-96.0166,-5.21862,-2.35413,1.11833,-2.07531,-96.1582
2868.64,28.4019,-86.8879,41.4031,0.406618,-0.560625,0.40227,0.598782,0.375771,0.0459062,-0.0763823,-105.796,-5.57027,-2.75296,0.352221,-0.144443,0.0626788,32.67,101.059,0.025,0.563041,0.0881489,-0.0816433,-2.63922,-0.104239,-0.0713549,0.130683,-0.0996281,0.349068,1.11833,-2.07531,-105.952,-96.0166,-5.21862,-2.35413,1.11833,-2.07531,-96.1582
2868.67,28.6085,-86.6652,42.2335,0.412092,-0.555558,0.407211,0.596419,0.384172,0.0639491,-0.0347852,-106.975,-4.33104,-3.36981,0.357037,-0.150653,0.0709451,32.67,101.048,0.025001,0.525527,0.0918502,-0.0512112,-2.67246,-0.0899911,-0.0675843,0.137189,-0.106551,0.353597,-0.274285,-1.22228,-107.109,-97.1981,-3.94809,-2.94797,-0.274285,-1.22228,-97.3148
2868.69,28.6085,-86.6652,42.2335,0.412092,-0.555558,0.407211,0.596419,0.384172,0.0639491,-0.0347852,-106.975,-4.33104,-3.36981,0.357037,-0.150653,0.0709451,32.67,101.048,0.025001,0.525527,0.0918502,-0.0512112,-2.67246,-0.0899911,-0.0675843,0.137189,-0.106551,0.353597,-0.274285,-1.22228,-107.109,-97.1981,-3.94809,-2.94797,-0.274285,-1.22228,-97.3148
2868.72,29.137,-86.5686,42.249,0.414788,-0.55299,0.409954,0.595055,0.406067,0.066556,-0.0188526,-107.624,-3.61785,-3.04912,0.354248,-0.138285,0.0740887,32.67,101.104,0.024999,0.542667,0.0963211,-0.0316507,-2.6858,-0.0896259,-0.0710015,0.125863,-0.104062,0.351331,-1.23207,-1.40573,-107.711,-97.8475,-3.22372,-2.6152,-1.23207,-1.40573,-97.9176
2868.75,30.8039,-86.4228,41.7136,0.4201,-0.547931,0.415905,0.59187,0.435451,0.0608959,0.0112693,-108.046,-3.10741,-2.98254,0.35421,-0.142329,0.0820883,32.67,101.036,0.025001,0.569853,0.0893866,0.0113488,-2.69705,-0.0946195,-0.0764151,0.13002,-0.10977,0.351434,-1.93749,-1.5452,-108.103,-98.2709,-2.70081,-2.5264,-1.93749,-1.5452,-98.3093
2868.77,30.8039,-86.4228,41.7136,0.4201,-0.547931,0.415905,0.59187,0.435451,0.0608959,0.0112693,-108.046,-3.10741,-2.98254,0.35421,-0.142329,0.0820883,32.67,101.036,0.025001,0.569853,0.0893866,0.0113488,-2.69705,-0.0946195,-0.0764151,0.13002,-0.10977,0.351434,-1.93749,-1.5452,-108.103,-98.2709,-2.70081,-2.5264,-1.93749,-1.5452,-98.3093
2868.8,33.8192,-86.3661,39.9374,0.42533,-0.54295,0.422937,0.587727,0.481474,0.0588714,0.0584631,-108.828,-4.30019,-3.06375,0.35415,-0.147449,0.0810011,32.67,101.002,0.025,0.631291,0.0863881,0.0811262,-2.7192,-0.103625,-0.0763843,0.1375,-0.106555,0.351375,-0.753672,-2.10624,-108.933,-99.0536,-3.9017,-2.58779,-0.753672,-2.10624,-99.139
2868.82,33.8192,-86.3661,39.9374,0.42533,-0.54295,0.422937,0.587727,0.481474,0.0588714,0.0584631,-108.828,-4.30019,-3.06375,0.35415,-0.147449,0.0810011,32.67,101.002,0.025,0.631291,0.0863881,0.0811262,-2.7192,-0.103625,-0.0763843,0.1375,-0.106555,0.351375,-0.753672,-2.10624,-108.933,-99.0536,-3.9017,-2.58779,-0.753672,-2.10624,-99.139
2868.85,35.8507,-86.3678,38.5766,0.427968,-0.540444,0.426902,0.58525,0.49716,0.0534307,0.078131,-109.498,-4.42015,-3.05186,0.355208,-0.140292,0.0843917,32.68,100.961,0.025,0.666085,0.0839811,0.111091,-2.73246,-0.101863,-0.0783341,0.130691,-0.105803,0.353132,-0.553854,-2.31563,-109.604,-99.7243,-4.03326,-2.5668,-0.553854,-2.31563,-99.8105
2868.87,35.8507,-86.3678,38.5766,0.427968,-0.540444,0.426902,0.58525,0.49716,0.0534307,0.078131,-109.498,-4.42015,-3.05186,0.355208,-0.140292,0.0843917,32.68,100.961,0.025,0.666085,0.0839811,0.111091,-2.73246,-0.101863,-0.0783341,0.130691,-0.105803,0.353132,-0.553854,-2.31563,-109.604,-99.7243,-4.03326,-2.5668,-0.553854,-2.31563,-99.8105
2868.9,40.4432,-86.4139,35.3819,0.433298,-0.535495,0.435252,0.579702,0.513622,0.0406588,0.101984,-110.741,-4.08722,-3.32834,0.353253,-0.141198,0.095674,32.67,100.9,0.025001,0.702963,0.0675529,0.147511,-2.76475,-0.101223,-0.0804893,0.13028,-0.11301,0.352327,-0.501271,-2.27362,-110.842,-100.966,-3.73252,-2.82889,-0.501271,-2.27362,-101.048
2868.92,45.7429,-86.5042,31.5402,0.438678,-0.530638,0.444011,0.573445,0.526539,0.0347796,0.11833,-112.238,-4.05435,-3.28068,0.351225,-0.148304,0.0967828,32.67,100.855,0.025,0.732272,0.0538816,0.177345,-2.79669,-0.10186,-0.079046,0.138313,-0.11171,0.350871,-0.105667,-2.60071,-112.329,-102.463,-3.74195,-2.77169,-0.105667,-2.60071,-102.535
2868.95,45.7429,-86.5042,31.5402,0.438678,-0.530638,0.444011,0.573445,0.526539,0.0347796,0.11833,-112.238,-4.05435,-3.28068,0.351225,-0.148304,0.0967828,32.67,100.855,0.025,0.732272,0.0538816,0.177345,-2.79669,-0.10186,-0.079046,0.138313,-0.11171,0.350871,-0.105667,-2.60071,-112.329,-102.463,-3.74195,-2.77169,-0.105667,-2.60071,-102.535
2868.97,51.4021,-86.6083,27.3853,0.444212,-0.525747,0.452919,0.566683,0.5412,0.0186506,0.122595,-113.475,-4.02245,-3.6427,0.351303,-0.142091,0.109231,32.67,100.799,0.025001,0.749907,0.0353737,0.18454,-2.8296,-0.1048,-0.0859256,0.131139,-0.118489,0.352559,0.460329,-2.4627,-113.577,-103.698,-3.75594,-3.12823,0.460329,-2.4627,-103.783
2869,51.4021,-86.6083,27.3853,0.444212,-0.525747,0.452919,0.566683,0.5412,0.0186506,0.122595,-113.475,-4.02245,-3.6427,0.351303,-0.142091,0.109231,32.67,100.799,0.025001,0.749907,0.0353737,0.18454,-2.8296,-0.1048,-0.0859256,0.131139,-0.118489,0.352559,0.460329,-2.4627,-113.577,-103.698,-3.75594,-3.12823,0.460329,-2.4627,-103.783
2869.02,54.2447,-86.6603,25.3026,0.447035,-0.523284,0.457333,0.563188,0.544215,0.0226262,0.119588,-114.36,-3.64631,-3.16535,0.351314,-0.141076,0.108084,32.685,100.765,0.024999,0.754603,0.0311325,0.182944,-2.85092,-0.10525,-0.0789574,0.131122,-0.115224,0.352897,0.262728,-2.96141,-114.424,-104.583,-3.40246,-2.64953,0.262728,-2.96141,-104.63
2869.05,59.4175,-86.7438,21.6239,0.452731,-0.518297,0.465745,0.556313,0.547846,0.00571026,0.103739,-116.361,-4.21138,-3.41255,0.34928,-0.148208,0.104644,32.69,100.689,0.025,0.75177,0.0158833,0.158114,-2.89869,-0.104157,-0.0887344,0.140233,-0.109307,0.35114,1.32479,-2.9815,-116.441,-106.583,-4.00638,-2.89541,1.32479,-2.9815,-106.647
2869.07,59.4175,-86.7438,21.6239,0.452731,-0.518297,0.465745,0.556313,0.547846,0.00571026,0.103739,-116.361,-4.21138,-3.41255,0.34928,-0.148208,0.104644,32.69,100.689,0.025,0.75177,0.0158833,0.158114,-2.89869,-0.104157,-0.0887344,0.140233,-0.109307,0.35114,1.32479,-2.9815,-116.441,-106.583,-4.00638,-2.89541,1.32479,-2.9815,-106.647
2869.1,64.3559,-86.8249,18.2698,0.458964,-0.512889,0.474299,0.548942,0.594463,0.0147168,0.100895,-119.249,-4.4363,-3.01323,0.348407,-0.139911,0.119297,32.685,100.651,0.024999,0.801296,0.0169242,0.152912,-2.96509,-0.105168,-0.0854304,0.13184,-0.118776,0.351718,1.92508,-3.54127,-119.302,-109.471,-4.26625,-2.49813,1.92508,-3.54127,-109.508
2869.12,64.3559,-86.8249,18.2698,0.458964,-0.512889,0.474299,0.548942,0.594463,0.0147168,0.100895,-119.249,-4.4363,-3.01323,0.348407,-0.139911,0.119297,32.685,100.651,0.024999,0.801296,0.0169242,0.152912,-2.96509,-0.105168,-0.0854304,0.13184,-0.118776,0.351718,1.92508,-3.54127,-119.302,-109.471,-4.26625,-2.49813,1.92508,-3.54127,-109.508
2869.15,70.0147,-86.8315,14.3305,0.465416,-0.506568,0.483676,0.541141,0.609819,0.0334981,0.100649,-121.228,-4.27448,-3.47232,0.346482,-0.137797,0.12259,32.67,100.561,0.024999,0.861115,0.050036,0.160801,-3.02232,-0.109338,-0.0854339,0.131637,-0.117452,0.350633,2.30337,-3.26926,-121.287,-111.449,-4.14049,-2.94783,2.30337,-3.26926,-111.493
2869.17,70.0147,-86.8315,14.3305,0.465416,-0.506568,0.483676,0.541141,0.609819,0.0334981,0.100649,-121.228,-4.27448,-3.47232,0.346482,-0.137797,0.12259,32.67,100.561,0.024999,0.861115,0.050036,0.160801,-3.02232,-0.109338,-0.0854339,0.131637,-0.117452,0.350633,2.30337,-3.26926,-121.287,-111.449,-4.14049,-2.94783,2.30337,-3.26926,-111.493
2869.2,72.575,-86.807,12.6411,0.468671,-0.503163,0.488352,0.537297,0.625913,0.0447869,0.087494,-121.091,-4.57878,-3.52334,0.346438,-0.141882,0.123767,32.67,100.527,0.025001,0.866597,0.060182,0.142849,-3.03107,-0.108194,-0.0834151,0.136886,-0.116625,0.350898,2.83482,-3.31266,-121.15,-111.312,-4.4594,-2.99105,2.83482,-3.31266,-111.357
2869.23,76.889,-86.7206,10.0968,0.47534,-0.495875,0.497614,0.52966,0.646221,0.0462706,0.0674086,-120.011,-4.37484,-3.57949,0.346541,-0.13361,0.13847,32.67,100.425,0.025001,0.88681,0.0704851,0.110832,-3.00741,-0.107665,-0.0849867,0.130683,-0.125817,0.352432,2.99809,-3.34876,-120.06,-110.234,-4.27662,-3.0279,2.99809,-3.34876,-110.266
2869.25,76.889,-86.7206,10.0968,0.47534,-0.495875,0.497614,0.52966,0.646221,0.0462706,0.0674086,-120.011,-4.37484,-3.57949,0.346541,-0.13361,0.13847,32.67,100.425,0.025001,0.88681,0.0704851,0.110832,-3.00741,-0.107665,-0.0849867,0.130683,-0.125817,0.352432,2.99809,-3.34876,-120.06,-110.234,-4.27662,-3.0279,2.99809,-3.34876,-110.266
2869.28,79.3794,-86.6472,9.40856,0.48261,-0.488096,0.506333,0.521993,0.664145,0.0242122,0.0347787,-118.804,-4.4316,-3.39714,0.345656,-0.125395,0.139477,32.67,100.357,0.025,0.891724,0.0425665,0.0625282,-2.97478,-0.106176,-0.0891228,0.126179,-0.122032,0.351913,3.22055,-3.53362,-118.839,-109.027,-4.33797,-2.83204,3.22055,-3.53362,-109.045
2869.3,79.3794,-86.6472,9.40856,0.48261,-0.488096,0.506333,0.521993,0.664145,0.0242122,0.0347787,-118.804,-4.4316,-3.39714,0.345656,-0.125395,0.139477,32.67,100.357,0.025,0.891724,0.0425665,0.0625282,-2.97478,-0.106176,-0.0891228,0.126179,-0.122032,0.351913,3.22055,-3.53362,-118.839,-109.027,-4.33797,-2.83204,3.22055,-3.53362,-109.045
2869.33,79.8048,-86.6175,9.92008,0.486628,-0.483874,0.510534,0.518088,0.657386,0.0247431,0.0047728,-118.166,-4.21502,-3.01774,0.343725,-0.124255,0.15074,32.67,100.3,0.025,0.91079,0.0362908,0.0287391,-2.96019,-0.0985275,-0.084976,0.127159,-0.131157,0.350624,2.99425,-3.87086,-118.179,-108.39,-4.11548,-2.44852,2.99425,-3.87086,-108.385
2869.35,79.685,-86.5605,11.9649,0.495096,-0.474905,0.518742,0.510148,0.685041,0.0141809,-0.0128486,-117.071,-3.37552,-3.73779,0.345557,-0.134574,0.144116,32.67,100.244,0.024999,0.940723,0.0243295,-0.0067354,-2.92851,-0.100084,-0.0882325,0.142416,-0.119585,0.351719,2.00747,-3.08428,-117.121,-107.295,-3.25371,-3.16299,2.00747,-3.08428,-107.327
2869.38,79.685,-86.5605,11.9649,0.495096,-0.474905,0.518742,0.510148,0.685041,0.0141809,-0.0128486,-117.071,-3.37552,-3.73779,0.345557,-0.134574,0.144116,32.67,100.244,0.024999,0.940723,0.0243295,-0.0067354,-2.92851,-0.100084,-0.0882325,0.142416,-0.119585,0.351719,2.00747,-3.08428,-117.121,-107.295,-3.25371,-3.16299,2.00747,-3.08428,-107.327
2869.4,79.1719,-86.5115,14.5031,0.504024,-0.4653,0.527048,0.501673,0.730929,0.0229642,-0.00340467,-116.113,-3.22029,-3.71374,0.345827,-0.110978,0.155257,32.67,100.153,0.024999,1.00273,0.027139,-0.0112779,-2.90524,-0.101947,-0.0881161,0.124697,-0.126932,0.352641,1.64675,-3.03521,-116.165,-106.337,-3.07105,-3.13679,1.64675,-3.03521,-106.372
2869.43,79.1719,-86.5115,14.5031,0.504024,-0.4653,0.527048,0.501673,0.730929,0.0229642,-0.00340467,-116.113,-3.22029,-3.71374,0.345827,-0.110978,0.155257,32.67,100.153,0.024999,1.00273,0.027139,-0.0112779,-2.90524,-0.101947,-0.0881161,0.124697,-0.126932,0.352641,1.64675,-3.03521,-116.165,-106.337,-3.07105,-3.13679,1.64675,-3.03521,-106.372
2869.45,79.8055,-86.3802,16.0037,0.51263,-0.454824,0.536235,0.492745,0.735085,0.0409888,0.00489505,-115.308,-4.43319,-3.49234,0.345692,-0.123239,0.157651,32.67,100.051,0.024999,1.0573,0.0773429,0.0203575,-2.88271,-0.108024,-0.0897208,0.142468,-0.122655,0.352425,2.7668,-3.25111,-115.367,-105.534,-4.26271,-2.89796,2.7668,-3.25111,-105.573
2869.48,79.8055,-86.3802,16.0037,0.51263,-0.454824,0.536235,0.492745,0.735085,0.0409888,0.00489505,-115.308,-4.43319,-3.49234,0.345692,-0.123239,0.157651,32.67,100.051,0.024999,1.0573,0.0773429,0.0203575,-2.88271,-0.108024,-0.0897208,0.142468,-0.122655,0.352425,2.7668,-3.25111,-115.367,-105.534,-4.26271,-2.89796,2.7668,-3.25111,-105.573
2869.5,80.1591,-86.3309,16.7386,0.517003,-0.449517,0.540801,0.488033,0.742159,0.0318732,0.00408284,-114.72,-4.6149,-3.52199,0.348619,-0.123306,0.158936,32.67,100.028,0.025001,1.06243,0.0565809,0.0167372,-2.87156,-0.0993771,-0.0894082,0.145355,-0.120759,0.355372,2.90211,-3.1923,-114.785,-104.946,-4.4344,-2.92179,2.90211,-3.1923,-104.992
2869.53,81.0033,-86.2858,18.1401,0.52603,-0.438762,0.54993,0.477868,0.794802,0.0196553,0.0327412,-113.989,-4.13845,-4.10878,0.346794,-0.112939,0.173521,32.67,99.904,0.025,1.12324,0.0304786,0.0337391,-2.85746,-0.102822,-0.0891714,0.142634,-0.130911,0.35447,2.27652,-2.59001,-114.086,-104.216,-3.94092,-3.50588,2.27652,-2.59001,-104.292
2869.55,81.0033,-86.2858,18.1401,0.52603,-0.438762,0.54993,0.477868,0.794802,0.0196553,0.0327412,-113.989,-4.13845,-4.10878,0.346794,-0.112939,0.173521,32.67,99.904,0.025,1.12324,0.0304786,0.0337391,-2.85746,-0.102822,-0.0891714,0.142634,-0.130911,0.35447,2.27652,-2.59001,-114.086,-104.216,-3.94092,-3.50588,2.27652,-2.59001,-104.292
2869.58,82.9644,-86.2532,18.675,0.53553,-0.426912,0.560128,0.466058,0.934604,0.0183862,0.0597964,-113.554,-3.76091,-3.91592,0.344901,-0.10777,0.174509,32.67,99.802,0.025,1.27357,0.0412139,0.0757484,-2.83998,-0.0968499,-0.0921566,0.143556,-0.126532,0.352712,1.98333,-2.78095,-113.633,-103.781,-3.55598,-3.30961,1.98333,-2.78095,-103.839
2869.6,82.9644,-86.2532,18.675,0.53553,-0.426912,0.560128,0.466058,0.934604,0.0183862,0.0597964,-113.554,-3.76091,-3.91592,0.344901,-0.10777,0.174509,32.67,99.802,0.025,1.27357,0.0412139,0.0757484,-2.83998,-0.0968499,-0.0921566,0.143556,-0.126532,0.352712,1.98333,-2.78095,-113.633,-103.781,-3.55598,-3.30961,1.98333,-2.78095,-103.839
2869.63,86.2672,-86.3082,18.0646,0.545406,-0.414637,0.570947,0.452359,0.949742,-3.99E-05,0.0800962,-113.002,-4.02619,-3.4675,0.343096,-0.0953785,0.185662,32.69,99.682,0.025,1.31212,0.00301193,0.133967,-2.82656,-0.108226,-0.0840033,0.139826,-0.133924,0.351845,2.56822,-2.9141,-113.06,-103.228,-3.83064,-2.86795,2.56822,-2.9141,-103.266
2869.65,87.659,-86.3474,18.023,0.550384,-0.408395,0.576118,0.445397,0.963741,-0.0100262,0.073003,-112.804,-4.14762,-3.56052,0.34309,-0.0963682,0.191358,32.67,99.643,0.025,1.3219,-0.00679096,0.105996,-2.82127,-0.097291,-0.0902887,0.14541,-0.136039,0.352086,2.73691,-2.64087,-112.872,-103.03,-3.95458,-2.96719,2.73691,-2.64087,-103.079
2869.68,87.659,-86.3474,18.023,0.550384,-0.408395,0.576118,0.445397,0.963741,-0.0100262,0.073003,-112.804,-4.14762,-3.56052,0.34309,-0.0963682,0.191358,32.67,99.643,0.025,1.3219,-0.00679096,0.105996,-2.82127,-0.097291,-0.0902887,0.14541,-0.136039,0.352086,2.73691,-2.64087,-112.872,-103.03,-3.95458,-2.96719,2.73691,-2.64087,-103.079
2869.71,90.1242,-86.4156,18.3543,0.560548,-0.395114,0.586475,0.430951,1.02206,0.00446655,0.0482376,-112.902,-2.7933,-3.4325,0.343132,-0.0923039,0.18677,32.685,99.53,0.024999,1.37629,-0.000727596,0.0861609,-2.81763,-0.0928804,-0.089627,0.146694,-0.126141,0.351726,1.57668,-2.92611,-112.94,-103.127,-2.60048,-2.85132,1.57668,-2.92611,-103.146
2869.73,90.1242,-86.4156,18.3543,0.560548,-0.395114,0.586475,0.430951,1.02206,0.00446655,0.0482376,-112.902,-2.7933,-3.4325,0.343132,-0.0923039,0.18677,32.685,99.53,0.024999,1.37629,-0.000727596,0.0861609,-2.81763,-0.0928804,-0.089627,0.146694,-0.126141,0.351726,1.57668,-2.92611,-112.94,-103.127,-2.60048,-2.85132,1.57668,-2.92611,-103.146
2869.76,90.7037,-86.3519,20.6667,0.570825,-0.379989,0.596657,0.416855,0.979009,0.0364968,-0.0413516,-112.437,-4.18643,-3.22183,0.341246,-0.0870793,0.196856,32.685,99.398,0.025,1.43257,0.0594449,-0.0107244,-2.81044,-0.0898497,-0.0877695,0.152555,-0.129567,0.350319,2.81255,-2.63709,-112.495,-102.663,-3.96649,-2.63875,2.81255,-2.63709,-102.701
2869.78,89.8932,-86.2626,22.9473,0.576072,-0.371656,0.601507,0.410125,0.996333,0.0505679,-0.0741112,-111.897,-3.53137,-3.91799,0.344329,-0.073786,0.208245,32.67,99.338,0.025001,1.44646,0.0663977,-0.0725782,-2.80243,-0.0916728,-0.086674,0.148877,-0.140483,0.354222,1.72002,-2.32297,-111.984,-102.124,-3.28247,-3.33011,1.72002,-2.32297,-102.19
2869.81,89.8932,-86.2626,22.9473,0.576072,-0.371656,0.601507,0.410125,0.996333,0.0505679,-0.0741112,-111.897,-3.53137,-3.91799,0.344329,-0.073786,0.208245,32.67,99.338,0.025001,1.44646,0.0663977,-0.0725782,-2.80243,-0.0916728,-0.086674,0.148877,-0.140483,0.354222,1.72002,-2.32297,-111.984,-102.124,-3.28247,-3.33011,1.72002,-2.32297,-102.19
2869.83,89.3548,-86.0759,26.5256,0.586299,-0.354454,0.611537,0.395777,1.09427,0.0625117,-0.0154948,-111.089,-5.03563,-3.71281,0.344418,-0.0656162,0.205891,32.67,99.213,0.025001,1.54682,0.0869398,-0.0223639,-2.78694,-0.104302,-0.0849279,0.149175,-0.132668,0.354212,2.82421,-2.07677,-111.21,-101.319,-4.73629,-3.1131,2.82421,-2.07677,-101.416
2869.86,89.3548,-86.0759,26.5256,0.586299,-0.354454,0.611537,0.395777,1.09427,0.0625117,-0.0154948,-111.089,-5.03563,-3.71281,0.344418,-0.0656162,0.205891,32.67,99.213,0.025001,1.54682,0.0869398,-0.0223639,-2.78694,-0.104302,-0.0849279,0.149175,-0.132668,0.354212,2.82421,-2.07677,-111.21,-101.319,-4.73629,-3.1131,2.82421,-2.07677,-101.416
2869.88,91.0229,-85.9383,28.1788,0.596447,-0.336202,0.622576,0.37897,1.17836,0.0561804,0.0147709,-110.786,-3.74032,-3.69993,0.342708,-0.0450067,0.222649,32.69,99.081,0.024999,1.64516,0.0925838,0.0378,-2.77471,-0.0989304,-0.0832443,0.147473,-0.147684,0.354243,1.60012,-2.80409,-110.864,-101.017,-3.41273,-3.08844,1.60012,-2.80409,-101.071
2869.91,91.0229,-85.9383,28.1788,0.596447,-0.336202,0.622576,0.37897,1.17836,0.0561804,0.0147709,-110.786,-3.74032,-3.69993,0.342708,-0.0450067,0.222649,32.69,99.081,0.024999,1.64516,0.0925838,0.0378,-2.77471,-0.0989304,-0.0832443,0.147473,-0.147684,0.354243,1.60012,-2.80409,-110.864,-101.017,-3.41273,-3.08844,1.60012,-2.80409,-101.071
2869.93,92.9652,-85.9127,29.5617,0.606374,-0.318295,0.632876,0.361202,1.16025,0.0219138,0.0559121,-110.61,-3.96512,-2.83871,0.344761,-0.0358561,0.221521,32.68,98.911,0.025001,1.61841,0.0312682,0.0788165,-2.765,-0.0994847,-0.0865999,0.148048,-0.142509,0.356357,2.22519,-3.35902,-110.644,-100.841,-3.62073,-2.23153,2.22519,-3.35902,-100.85
2869.96,93.4785,-85.9345,30.7089,0.611425,-0.309324,0.63755,0.352149,1.16217,-0.0139001,0.0288605,-109.972,-3.9799,-3.70101,0.341873,-0.0326734,0.228166,32.67,98.828,0.025,1.63387,0.00252589,0.0514427,-2.7561,-0.0974358,-0.0951588,0.153737,-0.145736,0.353738,1.68644,-2.49784,-110.065,-100.203,-3.6253,-3.10401,1.68644,-2.49784,-100.271
2869.98,93.4785,-85.9345,30.7089,0.611425,-0.309324,0.63755,0.352149,1.16217,-0.0139001,0.0288605,-109.972,-3.9799,-3.70101,0.341873,-0.0326734,0.228166,32.67,98.828,0.025,1.63387,0.00252589,0.0514427,-2.7561,-0.0974358,-0.0951588,0.153737,-0.145736,0.353738,1.68644,-2.49784,-110.065,-100.203,-3.6253,-3.10401,1.68644,-2.49784,-100.271
2870.01,94.6545,-86.0539,33.0093,0.62178,-0.290747,0.646729,0.332561,1.27298,-0.0188649,0.0761196,-109.86,-2.72106,-4.57419,0.339146,-0.0151552,0.236945,32.67,98.703,0.024999,1.74522,-0.0243084,0.0860558,-2.75513,-0.10226,-0.0817387,0.154846,-0.154595,0.351448,-0.0263953,-2.26461,-109.966,-100.09,-2.35388,-4.00898,-0.0263953,-2.26461,-100.172
2870.03,94.6545,-86.0539,33.0093,0.62178,-0.290747,0.646729,0.332561,1.27298,-0.0188649,0.0761196,-109.86,-2.72106,-4.57419,0.339146,-0.0151552,0.236945,32.67,98.703,0.024999,1.74522,-0.0243084,0.0860558,-2.75513,-0.10226,-0.0817387,0.154846,-0.154595,0.351448,-0.0263953,-2.26461,-109.966,-100.09,-2.35388,-4.00898,-0.0263953,-2.26461,-100.172
2870.06,95.9788,-86.1214,35.2973,0.631688,-0.270862,0.655863,0.312166,1.29228,0.0191907,0.0681238,-109.849,-3.66777,-3.56136,0.342177,-0.00506029,0.226758,32.67,98.556,0.025,1.78239,0.0189905,0.0780875,-2.74771,-0.0978399,-0.0931204,0.150938,-0.143644,0.353715,1.18225,-2.30542,-109.937,-100.078,-3.28498,-3.02067,1.18225,-2.30542,-100.144
2870.09,98.9118,-86.0708,36.1302,0.64037,-0.249506,0.665623,0.290893,1.33058,0.0808947,0.00803296,-109.98,-2.73658,-3.87652,0.340208,-0.00703053,0.231228,32.67,98.454,0.024999,1.86783,0.101539,0.075561,-2.74018,-0.100332,-0.09488,0.164913,-0.134953,0.351921,0.359727,-2.78078,-110.047,-100.21,-2.34088,-3.33448,0.359727,-2.78078,-100.253
2870.11,98.9118,-86.0708,36.1302,0.64037,-0.249506,0.665623,0.290893,1.33058,0.0808947,0.00803296,-109.98,-2.73658,-3.87652,0.340208,-0.00703053,0.231228,32.67,98.454,0.024999,1.86783,0.101539,0.075561,-2.74018,-0.100332,-0.09488,0.164913,-0.134953,0.351921,0.359727,-2.78078,-110.047,-100.21,-2.34088,-3.33448,0.359727,-2.78078,-100.253
2870.14,100.182,-85.9639,36.7407,0.64423,-0.238254,0.670415,0.280617,1.30748,0.109321,-0.00165815,-103.871,-3.29867,-2.98853,0.340315,0.00221758,0.237961,32.68,98.323,0.025001,1.85267,0.141422,0.0165087,-2.67894,-0.0974862,-0.0773882,0.167982,-0.140096,0.352986,1.36441,-2.75617,-103.921,-94.1021,-2.8863,-2.43612,1.36441,-2.75617,-94.1276
2870.16,100.182,-85.9639,36.7407,0.64423,-0.238254,0.670415,0.280617,1.30748,0.109321,-0.00165815,-103.871,-3.29867,-2.98853,0.340315,0.00221758,0.237961,32.68,98.323,0.025001,1.85267,0.141422,0.0165087,-2.67894,-0.0974862,-0.0773882,0.167982,-0.140096,0.352986,1.36441,-2.75617,-103.921,-94.1021,-2.8863,-2.43612,1.36441,-2.75617,-94.1276
2870.19,103.438,-85.673,37.1856,0.650707,-0.215698,0.679884,0.26041,1.30818,0.118469,0.00900528,-48.0448,-0.903554,-3.24133,0.338539,0.0176509,0.244535,32.67,98.228,0.025001,1.81518,0.191664,0.00864764,-1.56905,-0.055333,-0.0702251,0.171755,-0.143366,0.353078,-1.0878,-0.779666,-48.1439,-38.279,-0.456937,-2.65263,-1.0878,-0.779666,-38.3502
2870.21,103.438,-85.673,37.1856,0.650707,-0.215698,0.679884,0.26041,1.30818,0.118469,0.00900528,-48.0448,-0.903554,-3.24133,0.338539,0.0176509,0.244535,32.67,98.228,0.025001,1.81518,0.191664,0.00864764,-1.56905,-0.055333,-0.0702251,0.171755,-0.143366,0.353078,-1.0878,-0.779666,-48.1439,-38.279,-0.456937,-2.65263,-1.0878,-0.779666,-38.3502
2870.24,105.775,-85.5935,38.6639,0.657807,-0.193114,0.68786,0.238424,1.33189,-0.0141272,0.0276632,1.60568,-1.01542,-1.59772,0.337676,0.0278906,0.242112,32.69,98.096,0.025,1.9017,0.0387683,0.0528692,-0.13389,-0.00902834,-0.0518994,0.173518,-0.137938,0.352542,-0.741236,1.86859,1.45633,11.3705,-0.545298,-1.01015,-0.741236,1.86859,11.2501
2870.26,106.158,-85.6799,40.236,0.661935,-0.181903,0.690937,0.226627,1.38444,-0.0336472,0.0978529,6.41774,-1.32201,-0.131297,0.338782,0.0401004,0.235218,32.675,98.058,0.025,1.92856,-0.0454048,0.0864876,0.143456,0.00320558,-0.0159191,0.166446,-0.138513,0.353298,0.488561,1.63547,6.32763,16.1837,-0.845467,0.4319,0.488561,1.63547,16.1214
2870.29,106.158,-85.6799,40.236,0.661935,-0.181903,0.690937,0.226627,1.38444,-0.0336472,0.0978529,6.41774,-1.32201,-0.131297,0.338782,0.0401004,0.235218,32.675,98.058,0.025,1.92856,-0.0454048,0.0864876,0.143456,0.00320558,-0.0159191,0.166446,-0.138513,0.353298,0.488561,1.63547,6.32763,16.1837,-0.845467,0.4319,0.488561,1.63547,16.1214
2870.31,108.151,-85.9749,42.2354,0.669695,-0.159759,0.696714,0.201432,1.38913,-0.0406401,0.129959,9.90602,-0.541318,0.588436,0.338923,0.0524032,0.239647,32.675,97.949,0.025,1.95815,-0.0702498,0.163376,0.246617,0.00988971,-0.0213042,0.174875,-0.140873,0.353015,0.562388,0.840756,9.88663,19.6756,-0.0792171,1.09743,0.562388,0.840756,19.6804
2870.34,108.151,-85.9749,42.2354,0.669695,-0.159759,0.696714,0.201432,1.38913,-0.0406401,0.129959,9.90602,-0.541318,0.588436,0.338923,0.0524032,0.239647,32.675,97.949,0.025,1.95815,-0.0702498,0.163376,0.246617,0.00988971,-0.0213042,0.174875,-0.140873,0.353015,0.562388,0.840756,9.88663,19.6756,-0.0792171,1.09743,0.562388,0.840756,19.6804
2870.36,110.669,-86.0914,43.5338,0.67553,-0.137658,0.702197,0.177844,1.30074,0.0427481,0.0184665,9.86834,0.634829,-0.175416,0.339185,0.0759443,0.241691,32.675,97.831,0.024999,1.84615,0.0495708,0.0823092,0.249228,0.00866566,-0.0171976,0.176207,-0.151427,0.353906,-0.671896,0.134838,9.86653,19.6393,1.09466,0.308575,-0.671896,0.134838,19.6603
2870.39,113.146,-85.8903,44.7418,0.679285,-0.114544,0.707789,0.156482,1.2525,0.100076,-0.0483932,10.1388,0.0704266,-0.577133,0.340137,0.0738675,0.240623,32.69,97.79,0.025,1.81317,0.146153,-0.0267313,0.252917,-0.00243822,-0.0139984,0.185313,-0.136068,0.355237,-0.846449,0.819269,10.0869,19.9074,0.564491,-0.0785952,-0.846449,0.819269,19.8807
2870.41,113.146,-85.8903,44.7418,0.679285,-0.114544,0.707789,0.156482,1.2525,0.100076,-0.0483932,10.1388,0.0704266,-0.577133,0.340137,0.0738675,0.240623,32.69,97.79,0.025,1.81317,0.146153,-0.0267313,0.252917,-0.00243822,-0.0139984,0.185313,-0.136068,0.355237,-0.846449,0.819269,10.0869,19.9074,0.564491,-0.0785952,-0.846449,0.819269,19.8807
2870.44,113.997,-85.8035,45.7137,0.681055,-0.103035,0.710115,0.145889,1.26212,0.0464001,0.039022,10.6334,-0.880199,-1.93003,0.336518,0.0986109,0.256104,32.67,97.707,0.025001,1.79499,0.107774,-0.00917307,0.259586,-0.00358389,-0.034706,0.195733,-0.158191,0.353868,-1.81935,2.20086,10.4601,20.4008,-0.367158,-1.42961,-1.81935,2.20086,20.2539
2870.46,113.997,-85.8035,45.7137,0.681055,-0.103035,0.710115,0.145889,1.26212,0.0464001,0.039022,10.6334,-0.880199,-1.93003,0.336518,0.0986109,0.256104,32.67,97.707,0.025001,1.79499,0.107774,-0.00917307,0.259586,-0.00358389,-0.034706,0.195733,-0.158191,0.353868,-1.81935,2.20086,10.4601,20.4008,-0.367158,-1.42961,-1.81935,2.20086,20.2539
2870.49,114.965,-85.7543,48.4844,0.684906,-0.0797952,0.713622,0.12361,1.309,0.0124087,0.00803512,10.4105,-1.22616,-0.99513,0.337511,0.101518,0.233381,32.69,97.598,0.025001,1.86811,0.0378506,0.016467,0.25769,0.000426564,-0.0307203,0.18398,-0.140566,0.353665,-0.928096,2.15364,10.2651,20.1773,-0.683235,-0.514528,-0.928096,2.15364,20.0588
2870.52,114.965,-85.7543,48.4844,0.684906,-0.0797952,0.713622,0.12361,1.309,0.0124087,0.00803512,10.4105,-1.22616,-0.99513,0.337511,0.101518,0.233381,32.69,97.598,0.025001,1.86811,0.0378506,0.016467,0.25769,0.000426564,-0.0307203,0.18398,-0.140566,0.353665,-0.928096,2.15364,10.2651,20.1773,-0.683235,-0.514528,-0.928096,2.15364,20.0588
2870.54,117.405,-85.6774,50.0232,0.687563,-0.0551778,0.717148,0.0995553,1.40694,0.149527,-0.00135133,9.87684,-0.734558,2.28309,0.339483,0.103495,0.230049,32.67,97.469,0.025001,1.99628,0.139043,0.00636009,0.245226,0.0281981,0.0118642,0.189931,-0.127797,0.355635,2.0444,0.883193,9.91688,19.6427,-0.168875,2.75736,2.0444,0.883193,19.7106
2870.57,122.02,-85.7867,49.7475,0.689477,-0.0297274,0.720135,0.0717134,1.54591,-0.0360746,0.158923,10.2172,-0.279048,-0.991876,0.337819,0.129144,0.234249,32.69,97.405,0.025,2.17113,0.00665477,0.20991,0.261641,-0.00550705,-0.0495233,0.199825,-0.139738,0.355268,-1.3385,1.05271,10.1269,19.9845,0.270128,-0.526925,-1.3385,1.05271,19.9206
2870.59,122.02,-85.7867,49.7475,0.689477,-0.0297274,0.720135,0.0717134,1.54591,-0.0360746,0.158923,10.2172,-0.279048,-0.991876,0.337819,0.129144,0.234249,32.69,97.405,0.025,2.17113,0.00665477,0.20991,0.261641,-0.00550705,-0.0495233,0.199825,-0.139738,0.355268,-1.3385,1.05271,10.1269,19.9845,0.270128,-0.526925,-1.3385,1.05271,19.9206
2870.62,123.606,-86.0074,50.3321,0.69099,-0.0176016,0.720388,0.0571329,1.47365,-0.0478227,0.162359,10.1812,-0.69082,-1.17927,0.340901,0.143365,0.229708,32.675,97.326,0.025001,2.14064,-0.0519825,0.251149,0.252313,0.010767,-0.0211226,0.199801,-0.146534,0.357967,-1.49036,1.39932,10.0671,19.9512,-0.165909,-0.743981,-1.49036,1.39932,19.8608
2870.64,123.606,-86.0074,50.3321,0.69099,-0.0176016,0.720388,0.0571329,1.47365,-0.0478227,0.162359,10.1812,-0.69082,-1.17927,0.340901,0.143365,0.229708,32.675,97.326,0.025001,2.14064,-0.0519825,0.251149,0.252313,0.010767,-0.0211226,0.199801,-0.146534,0.357967,-1.49036,1.39932,10.0671,19.9512,-0.165909,-0.743981,-1.49036,1.39932,19.8608
2870.67,126.808,-86.2617,51.1375,0.692469,0.00554792,0.720765,0.0308837,1.3291,0.0845106,0.0265627,9.82052,0.185749,-0.481174,0.337908,0.138234,0.214828,32.675,97.141,0.024999,1.89592,0.0766298,0.118133,0.23895,0.0161985,0.0124997,0.196226,-0.127793,0.352996,-0.87096,0.344013,9.78937,19.5934,0.682973,-0.0805035,-0.87096,0.344013,19.5831
2870.69,130.271,-85.9264,51.2845,0.690611,0.0289875,0.722578,0.00980071,1.18397,0.148899,-0.124796,9.98121,0.963233,-1.14314,0.336206,0.160788,0.214509,32.675,97.054,0.025,1.72292,0.218188,-0.10401,0.24711,0.00166198,-0.0131751,0.202933,-0.136181,0.3538,-1.57496,-0.452843,9.9586,19.7502,1.50609,-0.707988,-1.57496,-0.452843,19.7523
2870.72,130.271,-85.9264,51.2845,0.690611,0.0289875,0.722578,0.00980071,1.18397,0.148899,-0.124796,9.98121,0.963233,-1.14314,0.336206,0.160788,0.214509,32.675,97.054,0.025,1.72292,0.218188,-0.10401,0.24711,0.00166198,-0.0131751,0.202933,-0.136181,0.3538,-1.57496,-0.452843,9.9586,19.7502,1.50609,-0.707988,-1.57496,-0.452843,19.7523
2870.74,129.934,-85.4355,54.9905,0.688763,0.0527025,0.723025,-0.00800581,1.19291,0.0608793,-0.117532,9.82662,-0.591153,-0.529882,0.337176,0.160715,0.206599,32.675,97.027,0.024999,1.66766,0.0933013,-0.196052,0.247703,-0.00638784,-0.0281438,0.201899,-0.121203,0.356015,-1.07905,1.14121,9.73273,19.5893,0.0472237,-0.0827278,-1.07905,1.14121,19.5265
2870.77,129.934,-85.4355,54.9905,0.688763,0.0527025,0.723025,-0.00800581,1.19291,0.0608793,-0.117532,9.82662,-0.591153,-0.529882,0.337176,0.160715,0.206599,32.675,97.027,0.024999,1.66766,0.0933013,-0.196052,0.247703,-0.00638784,-0.0281438,0.201899,-0.121203,0.356015,-1.07905,1.14121,9.73273,19.5893,0.0472237,-0.0827278,-1.07905,1.14121,19.5265
2870.79,129.947,-85.2725,56.7179,0.687916,0.0644772,0.722705,-0.0176592,1.23012,0.0695396,-0.0989358,9.62384,-0.00644132,-0.199534,0.334314,0.166899,0.201842,32.69,96.963,0.025001,1.71486,0.09525,-0.125297,0.245904,-0.0169959,-0.0201447,0.20161,-0.120568,0.353805,-0.707966,0.591024,9.58163,19.3843,0.668347,0.243418,-0.707966,0.591024,19.3754
2870.82,129.947,-85.2725,56.7179,0.687916,0.0644772,0.722705,-0.0176592,1.23012,0.0695396,-0.0989358,9.62384,-0.00644132,-0.199534,0.334314,0.166899,0.201842,32.69,96.963,0.025001,1.71486,0.09525,-0.125297,0.245904,-0.0169959,-0.0201447,0.20161,-0.120568,0.353805,-0.707966,0.591024,9.58163,19.3843,0.668347,0.243418,-0.707966,0.591024,19.3754
2870.84,130.276,-85.1132,60.2123,0.686202,0.0892528,0.720812,-0.0398837,1.37744,0.00149762,-0.0284855,9.51944,-0.477697,-0.670459,0.331648,0.190499,0.201464,32.68,96.85,0.025,1.92396,0.0348,-0.0188748,0.243997,-0.00848197,-0.0259533,0.213887,-0.128353,0.353053,-1.2687,0.964304,9.42115,19.2776,0.246378,-0.255984,-1.2687,0.964304,19.2149
2870.87,131.178,-85.3013,63.335,0.684678,0.113295,0.717029,-0.0651894,1.4422,-0.0132953,0.0627407,9.58692,0.0214153,-0.865462,0.334687,0.201576,0.184445,32.69,96.839,0.025,2.01606,-0.0122498,0.120805,0.238069,0.00735814,-0.0183928,0.210442,-0.12762,0.355099,-1.34872,0.352531,9.52445,19.3477,0.738356,-0.505427,-1.34872,0.352531,19.3182
2870.89,131.178,-85.3013,63.335,0.684678,0.113295,0.717029,-0.0651894,1.4422,-0.0132953,0.0627407,9.58692,0.0214153,-0.865462,0.334687,0.201576,0.184445,32.69,96.839,0.025,2.01606,-0.0122498,0.120805,0.238069,0.00735814,-0.0183928,0.210442,-0.12762,0.355099,-1.34872,0.352531,9.52445,19.3477,0.738356,-0.505427,-1.34872,0.352531,19.3182
2870.92,132.387,-85.4381,64.186,0.683392,0.125131,0.714949,-0.0785226,1.43762,0.0342427,0.103248,9.23788,-0.38217,-0.156968,0.334659,0.199488,0.177642,32.675,96.726,0.025001,2.02999,0.0299775,0.174781,0.234399,-0.00652609,-0.00556199,0.20867,-0.120271,0.354035,-0.753902,0.863268,9.17581,19.0006,0.319079,0.182241,-0.753902,0.863268,18.9696
2870.95,132.387,-85.4381,64.186,0.683392,0.125131,0.714949,-0.0785226,1.43762,0.0342427,0.103248,9.23788,-0.38217,-0.156968,0.334659,0.199488,0.177642,32.675,96.726,0.025001,2.02999,0.0299775,0.174781,0.234399,-0.00652609,-0.00556199,0.20867,-0.120271,0.354035,-0.753902,0.863268,9.17581,19.0006,0.319079,0.182241,-0.753902,0.863268,18.9696
2870.97,135.627,-85.6051,64.8823,0.679605,0.147895,0.710996,-0.103679,1.31597,0.0823012,0.0836727,9.21252,0.134205,-1.32969,0.333907,0.219957,0.175118,32.685,96.59,0.025,1.8914,0.107916,0.125853,0.229657,-4.31E-05,-0.00733976,0.222216,-0.126206,0.353883,-1.70208,-0.0987696,9.1515,18.9775,0.813739,-1.01112,-1.70208,-0.0987696,18.9452
2871,138.853,-85.5921,65.3306,0.674633,0.169797,0.707182,-0.126226,1.27122,0.0884482,-0.0116192,8.96856,-0.547017,-0.0408444,0.336908,0.227004,0.168373,32.685,96.529,0.024999,1.80005,0.11962,0.0244082,0.22705,-0.00198309,-0.0130711,0.226475,-0.120531,0.357167,-0.779259,0.934836,8.90252,18.7333,0.137004,0.273328,-0.779259,0.934836,18.6963
2871.02,138.853,-85.5921,65.3306,0.674633,0.169797,0.707182,-0.126226,1.27122,0.0884482,-0.0116192,8.96856,-0.547017,-0.0408444,0.336908,0.227004,0.168373,32.685,96.529,0.024999,1.80005,0.11962,0.0244082,0.22705,-0.00198309,-0.0130711,0.226475,-0.120531,0.357167,-0.779259,0.934836,8.90252,18.7333,0.137004,0.273328,-0.779259,0.934836,18.6963
2871.05,140.343,-85.4512,67.367,0.669305,0.191758,0.702679,-0.146636,1.2192,0.0470186,-0.0313653,8.78686,-0.000764191,0.367577,0.333897,0.220803,0.145543,32.69,96.465,0.024999,1.71134,0.0584652,-0.049095,0.226597,0.00378111,-0.0216039,0.210507,-0.110379,0.35345,-0.211784,0.616612,8.77035,18.5498,0.716138,0.666478,-0.211784,0.616612,18.5641
2871.07,140.343,-85.4512,67.367,0.669305,0.191758,0.702679,-0.146636,1.2192,0.0470186,-0.0313653,8.78686,-0.000764191,0.367577,0.333897,0.220803,0.145543,32.69,96.465,0.024999,1.71134,0.0584652,-0.049095,0.226597,0.00378111,-0.0216039,0.210507,-0.110379,0.35345,-0.211784,0.616612,8.77035,18.5498,0.716138,0.666478,-0.211784,0.616612,18.5641
2871.1,141.487,-85.3627,68.0244,0.666118,0.202878,0.700337,-0.157023,1.23587,0.0954158,-0.00425849,9.11473,0.277904,-0.662818,0.334047,0.234121,0.148824,32.69,96.397,0.025001,1.77166,0.121204,-0.0381623,0.2231,-0.00419314,0.00205267,0.223011,-0.113063,0.355009,-1.01656,-0.109455,9.08568,18.8764,1.01219,-0.366513,-1.01656,-0.109455,18.8794
2871.12,141.487,-85.3627,68.0244,0.666118,0.202878,0.700337,-0.157023,1.23587,0.0954158,-0.00425849,9.11473,0.277904,-0.662818,0.334047,0.234121,0.148824,32.69,96.397,0.025001,1.77166,0.121204,-0.0381623,0.2231,-0.00419314,0.00205267,0.223011,-0.113063,0.355009,-1.01656,-0.109455,9.08568,18.8764,1.01219,-0.366513,-1.01656,-0.109455,18.8794
2871.15,143.201,-85.3185,70.1464,0.659621,0.225921,0.694001,-0.179506,1.39205,-0.00182866,0.0545105,9.33225,-1.18442,-1.14678,0.331154,0.238191,0.132716,32.68,96.291,0.025001,1.95422,0.0403111,0.0577071,0.228351,-0.0105387,-0.029525,0.21944,-0.10929,0.352013,-2.21495,0.812257,9.17841,19.0933,-0.432583,-0.875309,-2.21495,0.812257,18.9722
2871.17,143.085,-85.6439,74.3889,0.653987,0.249161,0.684313,-0.204784,1.46091,-0.0513722,0.142832,8.91018,0.821659,-1.27954,0.333999,0.231858,0.112457,32.67,96.246,0.025001,2.05923,-0.0602982,0.199663,0.219861,0.00548749,-0.0134786,0.209441,-0.099915,0.352294,-1.05774,-1.02328,8.9184,18.6756,1.53812,-1.07935,-1.05774,-1.02328,18.7121
2871.2,143.085,-85.6439,74.3889,0.653987,0.249161,0.684313,-0.204784,1.46091,-0.0513722,0.142832,8.91018,0.821659,-1.27954,0.333999,0.231858,0.112457,32.67,96.246,0.025001,2.05923,-0.0602982,0.199663,0.219861,0.00548749,-0.0134786,0.209441,-0.099915,0.352294,-1.05774,-1.02328,8.9184,18.6756,1.53812,-1.07935,-1.05774,-1.02328,18.7121
2871.22,142.886,-86.0697,78.6837,0.647812,0.271319,0.673584,-0.230237,1.41684,-0.011251,0.110717,8.5504,-0.157136,0.0302569,0.337054,0.243998,0.10225,32.68,96.099,0.025,2.02281,-0.034383,0.195372,0.214332,0.00417493,-0.00658932,0.21949,-0.100391,0.354037,-0.548718,0.491068,8.52014,18.3211,0.501121,0.161984,-0.548718,0.491068,18.3139
2871.25,142.886,-86.0697,78.6837,0.647812,0.271319,0.673584,-0.230237,1.41684,-0.011251,0.110717,8.5504,-0.157136,0.0302569,0.337054,0.243998,0.10225,32.68,96.099,0.025,2.02281,-0.034383,0.195372,0.214332,0.00417493,-0.00658932,0.21949,-0.100391,0.354037,-0.548718,0.491068,8.52014,18.3211,0.501121,0.161984,-0.548718,0.491068,18.3139
2871.27,143.605,-86.2144,79.9131,0.644045,0.281824,0.668691,-0.242144,1.32406,0.0338584,0.118398,8.37593,0.0422393,0.10274,0.334157,0.247099,0.0952495,32.685,96.091,0.025,1.92094,0.0234848,0.160291,0.209698,0.00191346,0.000572276,0.221004,-0.100171,0.350591,-0.341659,0.368321,8.36159,18.1483,0.678864,0.21599,-0.341659,0.368321,18.1553
2871.3,146.733,-86.2811,80.4284,0.635173,0.301931,0.660269,-0.263511,1.23334,0.0978508,-0.0525445,8.23195,0.763253,0.519039,0.336058,0.243858,0.0749094,32.685,95.906,0.025,1.75547,0.111775,0.0102258,0.208375,0.013157,-0.00876882,0.211077,-0.0986304,0.351756,0.464655,0.155499,8.26903,18.0051,1.38967,0.62467,0.464655,0.155499,18.0628
2871.32,146.733,-86.2811,80.4284,0.635173,0.301931,0.660269,-0.263511,1.23334,0.0978508,-0.0525445,8.23195,0.763253,0.519039,0.336058,0.243858,0.0749094,32.685,95.906,0.025,1.75547,0.111775,0.0102258,0.208375,0.013157,-0.00876882,0.211077,-0.0986304,0.351756,0.464655,0.155499,8.26903,18.0051,1.38967,0.62467,0.464655,0.155499,18.0628
2871.35,150.475,-85.877,80.0526,0.624393,0.322372,0.653726,-0.280807,1.17361,0.094254,-0.138735,8.53289,-0.624706,-0.930587,0.333265,0.256205,0.0746409,32.67,95.838,0.025,1.64047,0.15537,-0.211735,0.212958,-0.00193171,-0.0218673,0.223776,-0.093106,0.351474,-1.6059,-0.0198777,8.45501,18.3013,0.0688703,-0.808946,-1.6059,-0.0198777,18.2488
2871.38,150.475,-85.877,80.0526,0.624393,0.322372,0.653726,-0.280807,1.17361,0.094254,-0.138735,8.53289,-0.624706,-0.930587,0.333265,0.256205,0.0746409,32.67,95.838,0.025,1.64047,0.15537,-0.211735,0.212958,-0.00193171,-0.0218673,0.223776,-0.093106,0.351474,-1.6059,-0.0198777,8.45501,18.3013,0.0688703,-0.808946,-1.6059,-0.0198777,18.2488
2871.4,152.135,-85.4468,81.8214,0.613487,0.343493,0.645835,-0.297563,1.26467,0.0862908,-0.0556579,8.43315,-0.449726,-0.230767,0.335249,0.260146,0.0576424,32.685,95.793,0.025,1.72243,0.105397,-0.151666,0.210477,-0.00993723,-0.00555635,0.219994,-0.0936303,0.355283,-1.08993,0.390221,8.36859,18.196,0.319843,-0.120165,-1.08993,0.390221,18.1623
2871.43,152.135,-85.4468,81.8214,0.613487,0.343493,0.645835,-0.297563,1.26467,0.0862908,-0.0556579,8.43315,-0.449726,-0.230767,0.335249,0.260146,0.0576424,32.685,95.793,0.025,1.72243,0.105397,-0.151666,0.210477,-0.00993723,-0.00555635,0.219994,-0.0936303,0.355283,-1.08993,0.390221,8.36859,18.196,0.319843,-0.120165,-1.08993,0.390221,18.1623
2871.45,153.241,-85.4584,82.5969,0.608116,0.353685,0.640514,-0.307965,1.33488,0.0356874,0.0755389,8.51102,-0.208422,-0.88624,0.337159,0.25698,0.0498111,32.68,95.725,0.025001,1.85282,0.0881991,0.0324325,0.214127,-0.014738,-0.0197947,0.21604,-0.0906965,0.356788,-1.27097,-0.313317,8.45889,18.274,0.560614,-0.786317,-1.27097,-0.313317,18.2526
2871.48,153.708,-85.8029,86.0572,0.598269,0.373574,0.627097,-0.330553,1.36755,-0.0452907,0.126274,8.3983,-0.231761,-1.23735,0.334337,0.267214,0.0381918,32.67,95.634,0.025,1.93734,-0.0215757,0.192755,0.208142,0.00357469,-0.0133053,0.227511,-0.0903976,0.353144,-1.37361,-0.680449,8.35263,18.1658,0.483339,-1.18806,-1.37361,-0.680449,18.1464
2871.5,153.708,-85.8029,86.0572,0.598269,0.373574,0.627097,-0.330553,1.36755,-0.0452907,0.126274,8.3983,-0.231761,-1.23735,0.334337,0.267214,0.0381918,32.67,95.634,0.025,1.93734,-0.0215757,0.192755,0.208142,0.00357469,-0.0133053,0.227511,-0.0903976,0.353144,-1.37361,-0.680449,8.35263,18.1658,0.483339,-1.18806,-1.37361,-0.680449,18.1464
2871.53,149.909,-86.2847,93.9503,0.589051,0.394019,0.610559,-0.353533,1.42073,-0.0603653,0.201782,7.86941,0.00010775,0.838109,0.336093,0.250682,0.0191193,32.69,95.525,0.025,2.05153,-0.121961,0.263581,0.199931,-0.00326364,-0.00144696,0.214169,-0.0820999,0.351507,-0.0717582,1.00794,7.84913,17.6426,0.633235,0.794389,-0.0717582,1.00794,17.6429
2871.55,149.909,-86.2847,93.9503,0.589051,0.394019,0.610559,-0.353533,1.42073,-0.0603653,0.201782,7.86941,0.00010775,0.838109,0.336093,0.250682,0.0191193,32.69,95.525,0.025,2.05153,-0.121961,0.263581,0.199931,-0.00326364,-0.00144696,0.214169,-0.0820999,0.351507,-0.0717582,1.00794,7.84913,17.6426,0.633235,0.794389,-0.0717582,1.00794,17.6429
2871.58,148.718,-86.5263,97.1825,0.583776,0.403725,0.602409,-0.365123,1.37808,-0.0319313,0.159986,7.8217,0.232773,-0.0209289,0.338071,0.253648,0.0100909,32.675,95.51,0.025,2.01782,-0.0480116,0.256783,0.19795,0.00920715,-0.00358591,0.21776,-0.083485,0.352621,-0.201454,0.132159,7.82149,17.5975,0.82153,-0.0951242,-0.201454,0.132159,17.6152
2871.6,148.54,-86.7075,101.183,0.571807,0.422619,0.588124,-0.38541,1.25753,0.0340889,-0.0203922,7.7897,-0.232192,0.150602,0.337015,0.247439,-0.00581827,32.67,95.385,0.024999,1.82678,0.0320641,0.0218066,0.195237,0.0122304,-0.00101506,0.213234,-0.0808952,0.350466,-0.54689,0.455013,7.76208,17.5673,0.319634,0.041506,-0.54689,0.455013,17.5558
2871.63,148.54,-86.7075,101.183,0.571807,0.422619,0.588124,-0.38541,1.25753,0.0340889,-0.0203922,7.7897,-0.232192,0.150602,0.337015,0.247439,-0.00581827,32.67,95.385,0.024999,1.82678,0.0320641,0.0218066,0.195237,0.0122304,-0.00101506,0.213234,-0.0808952,0.350466,-0.54689,0.455013,7.76208,17.5673,0.319634,0.041506,-0.54689,0.455013,17.5558
2871.65,151.648,-86.4963,101.626,0.557999,0.441356,0.576279,-0.402174,1.2345,0.0677755,-0.105462,7.80469,-1.33487,0.188331,0.336035,0.247429,-0.0115532,32.675,95.351,0.024999,1.73992,0.0835093,-0.14005,0.196318,-0.000720648,-0.00567305,0.21516,-0.0723023,0.350361,-1.64176,0.78985,7.70787,17.5801,-0.748598,0.0677082,-1.64176,0.78985,17.5016
2871.68,151.648,-86.4963,101.626,0.557999,0.441356,0.576279,-0.402174,1.2345,0.0677755,-0.105462,7.80469,-1.33487,0.188331,0.336035,0.247429,-0.0115532,32.675,95.351,0.024999,1.73992,0.0835093,-0.14005,0.196318,-0.000720648,-0.00567305,0.21516,-0.0723023,0.350361,-1.64176,0.78985,7.70787,17.5801,-0.748598,0.0677082,-1.64176,0.78985,17.5016
2871.7,155.63,-86.2124,101.256,0.542847,0.460179,0.564199,-0.418608,1.2856,0.0710843,-0.114554,7.70114,0.207695,-0.792134,0.33499,0.243176,-0.0422648,32.675,95.253,0.025,1.79591,0.111533,-0.153761,0.195575,-0.00483557,-0.0109353,0.206597,-0.0869837,0.350557,-0.441546,-0.608368,7.70799,17.4735,0.84219,-0.918411,-0.441546,-0.608368,17.5017
2871.73,157.771,-86.1091,100.977,0.534876,0.469435,0.557709,-0.427201,1.31834,0.091788,-0.0487335,7.82972,0.564168,-0.922517,0.33313,0.250474,-0.0276509,32.67,95.227,0.025001,1.83226,0.12363,-0.120121,0.193765,-0.00650699,-0.0103451,0.218803,-0.0672204,0.349405,-0.120057,-0.813229,7.86117,17.6009,1.2166,-1.04907,-0.120057,-0.813229,17.6549
2871.76,157.771,-86.1091,100.977,0.534876,0.469435,0.557709,-0.427201,1.31834,0.091788,-0.0487335,7.82972,0.564168,-0.922517,0.33313,0.250474,-0.0276509,32.67,95.227,0.025001,1.83226,0.12363,-0.120121,0.193765,-0.00650699,-0.0103451,0.218803,-0.0672204,0.349405,-0.120057,-0.813229,7.86117,17.6009,1.2166,-1.04907,-0.120057,-0.813229,17.6549
2871.78,161.661,-86.151,100.962,0.518833,0.487026,0.542829,-0.446042,1.39585,0.107322,0.0406005,7.69816,0.0769173,-0.360513,0.33497,0.242085,-0.0536262,32.67,95.181,0.025001,1.94546,0.146185,0.0585453,0.192323,-0.0026209,-0.0102453,0.211321,-0.077015,0.350853,-0.460823,-0.204711,7.69047,17.4698,0.722342,-0.485529,-0.460823,-0.204711,17.4842
2871.81,161.661,-86.151,100.962,0.518833,0.487026,0.542829,-0.446042,1.39585,0.107322,0.0406005,7.69816,0.0769173,-0.360513,0.33497,0.242085,-0.0536262,32.67,95.181,0.025001,1.94546,0.146185,0.0585453,0.192323,-0.0026209,-0.0102453,0.211321,-0.077015,0.350853,-0.460823,-0.204711,7.69047,17.4698,0.722342,-0.485529,-0.460823,-0.204711,17.4842
2871.83,164.712,-86.4575,101.868,0.503054,0.50328,0.525844,-0.465977,1.3714,0.0749827,0.104376,7.80879,-0.269693,-0.422791,0.332852,0.22773,-0.0672307,32.68,95.046,0.025001,1.93353,0.114552,0.157615,0.190434,0.00135356,-0.0141896,0.203039,-0.0751512,0.346841,-0.759549,-0.278818,7.78293,17.5838,0.322545,-0.547255,-0.759549,-0.278818,17.5767
2871.86,164.712,-86.4575,101.868,0.503054,0.50328,0.525844,-0.465977,1.3714,0.0749827,0.104376,7.80879,-0.269693,-0.422791,0.332852,0.22773,-0.0672307,32.68,95.046,0.025001,1.93353,0.114552,0.157615,0.190434,0.00135356,-0.0141896,0.203039,-0.0751512,0.346841,-0.759549,-0.278818,7.78293,17.5838,0.322545,-0.547255,-0.759549,-0.278818,17.5767
2871.88,166.674,-86.8359,103.748,0.487775,0.5183,0.508154,-0.484995,1.30144,0.0409099,0.0867679,7.5044,-0.563631,0.00325483,0.335784,0.228639,-0.0739154,32.69,94.993,0.025,1.85988,0.0811501,0.156036,0.187333,-0.000819659,-0.010536,0.210787,-0.0678726,0.3485,-0.96589,0.0943809,7.4627,17.2832,-0.0385369,-0.125215,-0.96589,0.0943809,17.2564
2871.91,166.822,-86.9746,105.439,0.480338,0.525643,0.499394,-0.493538,1.26049,0.024238,0.0659864,7.24055,-0.1617,0.176635,0.333926,0.236885,-0.0718199,32.69,94.914,0.025001,1.81337,0.0455435,0.141161,0.185563,0.00398918,-0.0126758,0.222038,-0.058321,0.346521,-0.540371,0.257178,7.21974,17.0206,0.336574,0.0390197,-0.540371,0.257178,17.0135
2871.93,166.822,-86.9746,105.439,0.480338,0.525643,0.499394,-0.493538,1.26049,0.024238,0.0659864,7.24055,-0.1617,0.176635,0.333926,0.236885,-0.0718199,32.69,94.914,0.025001,1.81337,0.0455435,0.141161,0.185563,0.00398918,-0.0126758,0.222038,-0.058321,0.346521,-0.540371,0.257178,7.21974,17.0206,0.336574,0.0390197,-0.540371,0.257178,17.0135
2871.96,166.192,-87.1229,109.671,0.46522,0.540388,0.48203,-0.509116,1.22898,-0.00890225,0.00407005,7.29236,0.226681,-0.51728,0.338502,0.211054,-0.094066,32.675,94.819,0.024999,1.74965,-0.00278506,0.0614035,0.182104,-0.00131172,-0.00664129,0.202777,-0.0678898,0.349641,-0.0775953,-0.403937,7.30262,17.0738,0.689582,-0.682763,-0.0775953,-0.403937,17.0964
2871.98,166.192,-87.1229,109.671,0.46522,0.540388,0.48203,-0.509116,1.22898,-0.00890225,0.00407005,7.29236,0.226681,-0.51728,0.338502,0.211054,-0.094066,32.675,94.819,0.024999,1.74965,-0.00278506,0.0614035,0.182104,-0.00131172,-0.00664129,0.202777,-0.0678898,0.349641,-0.0775953,-0.403937,7.30262,17.0738,0.689582,-0.682763,-0.0775953,-0.403937,17.0964
2872.01,166.24,-87.023,112.983,0.449798,0.554816,0.466263,-0.521977,1.18424,-0.0103177,-0.0489178,7.19357,-0.107482,-0.122526,0.33657,0.213114,-0.0998704,32.69,94.755,0.025001,1.6451,-0.0126247,-0.0665843,0.17978,0.000590854,-0.00302778,0.209078,-0.0601914,0.348331,-0.449264,-0.0493192,7.18121,16.9741,0.360781,-0.321126,-0.449264,-0.0493192,16.975
2872.03,166.392,-86.7582,116.157,0.433693,0.56954,0.450673,-0.533318,1.14681,-0.0473464,-0.0605843,7.14453,0.646387,-0.81144,0.335509,0.205929,-0.107809,32.67,94.683,0.025,1.63032,-0.0634885,-0.107997,0.177187,0.00274622,-0.00833554,0.205631,-0.0559401,0.348113,0.413092,-0.5562,7.18613,16.9226,1.14352,-1.0556,0.413092,-0.5562,16.9799
2872.06,166.392,-86.7582,116.157,0.433693,0.56954,0.450673,-0.533318,1.14681,-0.0473464,-0.0605843,7.14453,0.646387,-0.81144,0.335509,0.205929,-0.107809,32.67,94.683,0.025,1.63032,-0.0634885,-0.107997,0.177187,0.00274622,-0.00833554,0.205631,-0.0559401,0.348113,0.413092,-0.5562,7.18613,16.9226,1.14352,-1.0556,0.413092,-0.5562,16.9799
2872.09,166.538,-86.6499,117.666,0.425612,0.57656,0.442713,-0.538923,1.16865,-0.00393859,-0.0477564,6.74404,-0.210698,0.875141,0.336292,0.189449,-0.122383,32.69,94.608,0.025,1.62915,-0.0386217,-0.0912734,0.174148,-0.013229,0.0011183,0.194201,-0.0674925,0.348843,-0.801285,0.888204,6.69787,16.5211,0.2962,0.609402,-0.801285,0.888204,16.4916
2872.11,166.538,-86.6499,117.666,0.425612,0.57656,0.442713,-0.538923,1.16865,-0.00393859,-0.0477564,6.74404,-0.210698,0.875141,0.336292,0.189449,-0.122383,32.69,94.608,0.025,1.62915,-0.0386217,-0.0912734,0.174148,-0.013229,0.0011183,0.194201,-0.0674925,0.348843,-0.801285,0.888204,6.69787,16.5211,0.2962,0.609402,-0.801285,0.888204,16.4916
2872.14,168.837,-86.7397,118.896,0.408297,0.589097,0.42528,-0.552626,1.27406,0.0981516,0.0590725,6.97718,0.461431,-0.516795,0.334321,0.18842,-0.131568,32.69,94.563,0.025,1.77587,0.116283,0.0583175,0.171031,-0.00133615,0.000850908,0.200524,-0.0641734,0.346777,0.206568,-0.274665,7.00307,16.7551,0.949086,-0.785954,0.206568,-0.274665,16.7968
2872.16,168.837,-86.7397,118.896,0.408297,0.589097,0.42528,-0.552626,1.27406,0.0981516,0.0590725,6.97718,0.461431,-0.516795,0.334321,0.18842,-0.131568,32.69,94.563,0.025,1.77587,0.116283,0.0583175,0.171031,-0.00133615,0.000850908,0.200524,-0.0641734,0.346777,0.206568,-0.274665,7.00307,16.7551,0.949086,-0.785954,0.206568,-0.274665,16.7968
2872.19,172.181,-87.1027,119.309,0.389932,0.600271,0.405849,-0.568256,1.3246,0.122482,0.0859979,6.74172,0.418011,-0.252725,0.336109,0.174009,-0.138153,32.69,94.483,0.025,1.86476,0.174706,0.147379,0.172266,-0.00273066,-0.0120956,0.195413,-0.062455,0.346768,0.14331,-0.0355816,6.75778,16.5229,0.849688,-0.495055,0.14331,-0.0355816,16.5515
2872.21,174.697,-87.478,120.528,0.37158,0.610823,0.385751,-0.583112,1.27034,0.0846714,0.0667829,6.69812,0.191278,-0.474286,0.339955,0.169745,-0.150423,32.68,94.389,0.025001,1.80969,0.134483,0.136837,0.171143,-0.00355492,-0.0155621,0.202554,-0.0623359,0.349422,0.0812864,-0.320261,6.70948,16.4824,0.562507,-0.693204,0.0812864,-0.320261,16.5032
2872.24,174.697,-87.478,120.528,0.37158,0.610823,0.385751,-0.583112,1.27034,0.0846714,0.0667829,6.69812,0.191278,-0.474286,0.339955,0.169745,-0.150423,32.68,94.389,0.025001,1.80969,0.134483,0.136837,0.171143,-0.00355492,-0.0155621,0.202554,-0.0623359,0.349422,0.0812864,-0.320261,6.70948,16.4824,0.562507,-0.693204,0.0812864,-0.320261,16.5032
2872.26,175.454,-87.6138,121.562,0.362625,0.615954,0.375968,-0.589705,1.23522,0.0660214,0.048817,6.81956,0.225517,-0.433215,0.337925,0.16264,-0.149315,32.69,94.347,0.024999,1.76529,0.1008,0.108788,0.169298,0.000223306,-0.009067,0.198505,-0.0580129,0.346656,0.114294,-0.260969,6.83109,16.6048,0.572957,-0.646646,0.114294,-0.260969,16.6248
2872.29,175.454,-87.6138,121.562,0.362625,0.615954,0.375968,-0.589705,1.23522,0.0660214,0.048817,6.81956,0.225517,-0.433215,0.337925,0.16264,-0.149315,32.69,94.347,0.024999,1.76529,0.1008,0.108788,0.169298,0.000223306,-0.009067,0.198505,-0.0580129,0.346656,0.114294,-0.260969,6.83109,16.6048,0.572957,-0.646646,0.114294,-0.260969,16.6248
2872.31,176.256,-87.7088,124.213,0.344768,0.626398,0.357173,-0.600989,1.17543,-0.00708038,0.0121946,6.70565,-0.729296,0.0533113,0.338956,0.167723,-0.150452,32.67,94.23,0.024999,1.68219,0.0185841,0.010406,0.16714,0.00180018,-0.0127791,0.207151,-0.0437286,0.347612,-0.922629,-0.306391,6.67498,16.4916,-0.405498,-0.166851,-0.922629,-0.306391,16.4687
2872.34,175.669,-87.618,128.204,0.326673,0.637288,0.338503,-0.61038,1.18904,-0.068918,-0.0339073,6.67473,0.00814681,-0.726629,0.342494,0.135813,-0.167002,32.69,94.144,0.025,1.68097,-0.0541234,-0.0202071,0.168191,-0.000301152,-0.0142883,0.191466,-0.0618742,0.350926,0.134747,-0.577782,6.68791,16.46,0.327995,-0.978363,0.134747,-0.577782,16.4817
2872.36,175.669,-87.618,128.204,0.326673,0.637288,0.338503,-0.61038,1.18904,-0.068918,-0.0339073,6.67473,0.00814681,-0.726629,0.342494,0.135813,-0.167002,32.69,94.144,0.025,1.68097,-0.0541234,-0.0202071,0.168191,-0.000301152,-0.0142883,0.191466,-0.0618742,0.350926,0.134747,-0.577782,6.68791,16.46,0.327995,-0.978363,0.134747,-0.577782,16.4817
2872.39,173.903,-87.5011,131.649,0.317846,0.64301,0.328961,-0.614245,1.16443,-0.0998297,-0.0517676,6.58504,-0.493556,-0.116838,0.340415,0.124588,-0.170402,32.69,94.121,0.024999,1.65545,-0.129905,-0.0324495,0.166391,-0.00450724,-0.0199181,0.185489,-0.0645987,0.349088,-0.618834,-0.351566,6.56609,16.3695,-0.174473,-0.400622,-0.618834,-0.351566,16.3598
2872.41,173.903,-87.5011,131.649,0.317846,0.64301,0.328961,-0.614245,1.16443,-0.0998297,-0.0517676,6.58504,-0.493556,-0.116838,0.340415,0.124588,-0.170402,32.69,94.121,0.024999,1.65545,-0.129905,-0.0324495,0.166391,-0.00450724,-0.0199181,0.185489,-0.0645987,0.349088,-0.618834,-0.351566,6.56609,16.3695,-0.174473,-0.400622,-0.618834,-0.351566,16.3598
2872.44,170.875,-87.3433,138.028,0.300241,0.653518,0.309511,-0.622071,1.16733,-0.0440661,-0.0102499,6.2919,0.0998754,0.0227794,0.336536,0.126745,-0.168344,32.68,94.076,0.025001,1.6515,-0.0809354,0.00633035,0.157215,0.00216894,0.00424639,0.18873,-0.0489013,0.345905,-0.22459,0.126707,6.28744,16.0751,0.403476,-0.314729,-0.22459,0.126707,16.0812
2872.46,170.875,-87.3433,138.028,0.300241,0.653518,0.309511,-0.622071,1.16733,-0.0440661,-0.0102499,6.2919,0.0998754,0.0227794,0.336536,0.126745,-0.168344,32.68,94.076,0.025001,1.6515,-0.0809354,0.00633035,0.157215,0.00216894,0.00424639,0.18873,-0.0489013,0.345905,-0.22459,0.126707,6.28744,16.0751,0.403476,-0.314729,-0.22459,0.126707,16.0812
2872.49,170.06,-87.3645,142.241,0.281927,0.662339,0.289744,-0.630771,1.18966,0.0670424,0.016002,6.00814,0.106165,0.509394,0.338247,0.106129,-0.18624,32.67,94.004,0.025,1.68105,0.0392802,0.0392626,0.151978,-0.00431111,0.0063327,0.188298,-0.0635973,0.347648,-0.536066,0.495838,5.98626,15.7915,0.381914,0.153377,-0.536066,0.495838,15.78
2872.51,174.234,-87.8199,141.71,0.26139,0.668285,0.268924,-0.642456,1.31157,0.185474,0.0548184,6.15421,0.58128,-0.423821,0.338174,0.0990158,-0.17821,32.67,93.947,0.025,1.83927,0.272289,0.0890326,0.152786,0.00229419,-0.00584989,0.18398,-0.0514531,0.345584,0.475347,0.146611,6.17612,15.9409,0.812142,-0.716253,0.475347,0.146611,15.9699
2872.54,174.234,-87.8199,141.71,0.26139,0.668285,0.268924,-0.642456,1.31157,0.185474,0.0548184,6.15421,0.58128,-0.423821,0.338174,0.0990158,-0.17821,32.67,93.947,0.025,1.83927,0.272289,0.0890326,0.152786,0.00229419,-0.00584989,0.18398,-0.0514531,0.345584,0.475347,0.146611,6.17612,15.9409,0.812142,-0.716253,0.475347,0.146611,15.9699
2872.56,176.676,-88.0669,141.141,0.250783,0.671001,0.258063,-0.648282,1.32554,0.164626,0.0579437,6.28209,-0.0436254,-0.208767,0.340054,0.0928092,-0.181463,32.685,93.883,0.025,1.84546,0.250641,0.0945383,0.15455,0.00448912,-0.00470108,0.185221,-0.0524092,0.346592,-0.0862352,-0.160221,6.28307,16.0703,0.163654,-0.46603,-0.0862352,-0.160221,16.0768
2872.59,176.676,-88.0669,141.141,0.250783,0.671001,0.258063,-0.648282,1.32554,0.164626,0.0579437,6.28209,-0.0436254,-0.208767,0.340054,0.0928092,-0.181463,32.685,93.883,0.025,1.84546,0.250641,0.0945383,0.15455,0.00448912,-0.00470108,0.185221,-0.0524092,0.346592,-0.0862352,-0.160221,6.28307,16.0703,0.163654,-0.46603,-0.0862352,-0.160221,16.0768
2872.62,173.883,-88.4232,147.745,0.230159,0.677247,0.23456,-0.65829,1.35732,0.00271005,0.127084,6.32347,0.0545539,-0.858523,0.343714,0.0711964,-0.186741,32.685,93.788,0.024999,1.90135,0.0568954,0.164878,0.158183,-0.00221213,-0.0249062,0.181122,-0.0590894,0.348976,0.53363,-0.471599,6.34186,16.1135,0.198394,-1.08645,0.53363,-0.471599,16.1356
2872.64,157.055,-88.3518,168.382,0.211035,0.685238,0.209028,-0.664997,1.3272,-0.148697,0.150436,6.08396,0.263264,-0.45239,0.343516,0.0537585,-0.194532,32.69,93.702,0.024999,1.87678,-0.169444,0.223277,0.154213,0.000242592,-0.0186216,0.181521,-0.0622029,0.349166,0.360566,0.0284582,6.09571,15.8737,0.319991,-0.728309,0.360566,0.0284582,15.8895
2872.67,157.055,-88.3518,168.382,0.211035,0.685238,0.209028,-0.664997,1.3272,-0.148697,0.150436,6.08396,0.263264,-0.45239,0.343516,0.0537585,-0.194532,32.69,93.702,0.024999,1.87678,-0.169444,0.223277,0.154213,0.000242592,-0.0186216,0.181521,-0.0622029,0.349166,0.360566,0.0284582,6.09571,15.8737,0.319991,-0.728309,0.360566,0.0284582,15.8895
2872.69,145.701,-87.9247,-176.673,0.192898,0.693446,0.184638,-0.669202,1.17988,-0.133463,0.0662258,5.66345,-0.489097,0.638105,0.338535,0.0446663,-0.195825,32.69,93.623,0.024999,1.72166,-0.211985,0.152725,0.143791,0.00137636,0.00728273,0.180657,-0.0554973,0.345299,-0.967934,0.0243744,5.6377,15.4508,-0.509681,0.284011,-0.967934,0.0243744,15.4314
2872.72,145.701,-87.9247,-176.673,0.192898,0.693446,0.184638,-0.669202,1.17988,-0.133463,0.0662258,5.66345,-0.489097,0.638105,0.338535,0.0446663,-0.195825,32.69,93.623,0.024999,1.72166,-0.211985,0.152725,0.143791,0.00137636,0.00728273,0.180657,-0.0554973,0.345299,-0.967934,0.0243744,5.6377,15.4508,-0.509681,0.284011,-0.967934,0.0243744,15.4314
2872.74,144.492,-87.7654,-173.796,0.183738,0.696867,0.17392,-0.671095,1.14342,-0.0890402,0.028497,5.60865,-0.00397373,0.506492,0.341244,0.0251514,-0.196624,32.69,93.611,0.025001,1.64302,-0.152067,0.0675828,0.141644,0.002877,0.00594144,0.172821,-0.0664904,0.348501,-0.621348,0.371245,5.58476,15.3949,-0.045244,0.126821,-0.621348,0.371245,15.3785
2872.77,144.492,-87.7654,-173.796,0.183738,0.696867,0.17392,-0.671095,1.14342,-0.0890402,0.028497,5.60865,-0.00397373,0.506492,0.341244,0.0251514,-0.196624,32.69,93.611,0.025001,1.64302,-0.152067,0.0675828,0.141644,0.002877,0.00594144,0.172821,-0.0664904,0.348501,-0.621348,0.371245,5.58476,15.3949,-0.045244,0.126821,-0.621348,0.371245,15.3785
2872.79,145.42,-87.7012,-171.572,0.165143,0.701832,0.154743,-0.675436,1.05375,0.0240747,-0.0533053,5.63571,-0.555767,0.10224,0.33832,0.025238,-0.194497,32.67,93.505,0.025,1.52231,0.00346695,-0.0290067,0.140711,-0.00328647,-0.00325169,0.174412,-0.055281,0.345617,-0.522843,-0.325515,5.63039,15.4216,-0.61335,-0.286378,-0.522843,-0.325515,15.4241
2872.82,152.035,-88.0378,-175.235,0.145574,0.704181,0.138751,-0.680944,0.993788,0.146197,-0.142975,5.48579,-0.578472,0.501614,0.339242,0.0201193,-0.190987,32.68,93.415,0.025001,1.41495,0.193903,-0.179574,0.138805,0.000363623,-0.00461189,0.173111,-0.0512461,0.345503,-0.854624,-0.246121,5.4671,15.2738,-0.60633,0.167394,-0.854624,-0.246121,15.2608
2872.84,152.035,-88.0378,-175.235,0.145574,0.704181,0.138751,-0.680944,0.993788,0.146197,-0.142975,5.48579,-0.578472,0.501614,0.339242,0.0201193,-0.190987,32.68,93.415,0.025001,1.41495,0.193903,-0.179574,0.138805,0.000363623,-0.00461189,0.173111,-0.0512461,0.345503,-0.854624,-0.246121,5.4671,15.2738,-0.60633,0.167394,-0.854624,-0.246121,15.2608
2872.87,165.294,-88.5343,174.325,0.125805,0.704912,0.124381,-0.686878,1.00907,0.178716,-0.0932304,5.66861,0.717318,-0.713469,0.341986,0.0036727,-0.191816,32.67,93.403,0.025,1.40068,0.263289,-0.161667,0.14221,-0.00736773,-0.0104888,0.172564,-0.0611228,0.346766,0.778108,0.460816,5.68673,15.4591,0.742092,-0.962785,0.778108,0.460816,15.4805
2872.89,165.294,-88.5343,174.325,0.125805,0.704912,0.124381,-0.686878,1.00907,0.178716,-0.0932304,5.66861,0.717318,-0.713469,0.341986,0.0036727,-0.191816,32.67,93.403,0.025,1.40068,0.263289,-0.161667,0.14221,-0.00736773,-0.0104888,0.172564,-0.0611228,0.346766,0.778108,0.460816,5.68673,15.4591,0.742092,-0.962785,0.778108,0.460816,15.4805
2872.92,172.62,-88.7746,168.501,0.115693,0.705049,0.116236,-0.689935,1.08033,0.176664,-0.0827219,5.7949,0.06304,-1.16043,0.341038,0.0057836,-0.185063,32.685,93.358,0.025001,1.47446,0.265764,-0.125184,0.140345,-0.00271151,-0.0090158,0.169703,-0.0534668,0.344864,0.995224,-0.299882,5.81817,15.5864,0.104797,-1.36569,0.995224,-0.299882,15.6119
2872.94,172.62,-88.7746,168.501,0.115693,0.705049,0.116236,-0.689935,1.08033,0.176664,-0.0827219,5.7949,0.06304,-1.16043,0.341038,0.0057836,-0.185063,32.685,93.358,0.025001,1.47446,0.265764,-0.125184,0.140345,-0.00271151,-0.0090158,0.169703,-0.0534668,0.344864,0.995224,-0.299882,5.81817,15.5864,0.104797,-1.36569,0.995224,-0.299882,15.6119
2872.97,-179.081,-89.1244,163.332,0.0960429,0.705762,0.0976958,-0.695077,1.12881,0.0925778,0.0486872,5.58172,0.0344802,-0.712036,0.342866,-0.0055104,-0.183717,32.69,93.271,0.024999,1.56578,0.156848,0.0178499,0.142589,-0.00729271,-0.0121953,0.170064,-0.0552512,0.345493,0.609252,-0.16144,5.59165,15.3743,0.0774303,-0.855491,0.609252,-0.16144,15.3854
2872.99,168.625,-89.2418,178.814,0.077764,0.707511,0.0769326,-0.698185,1.1298,-0.0279954,0.0849826,5.56524,0.599018,-0.779555,0.346586,-0.0219676,-0.182223,32.685,93.188,0.025,1.56002,0.0038979,0.12262,0.141483,0.0011006,-0.0224058,0.16857,-0.0601609,0.348962,0.818859,0.429702,5.57524,15.3581,0.601701,-0.909198,0.818859,0.429702,15.369
2873.02,168.625,-89.2418,178.814,0.077764,0.707511,0.0769326,-0.698185,1.1298,-0.0279954,0.0849826,5.56524,0.599018,-0.779555,0.346586,-0.0219676,-0.182223,32.685,93.188,0.025,1.56002,0.0038979,0.12262,0.141483,0.0011006,-0.0224058,0.16857,-0.0601609,0.348962,0.818859,0.429702,5.57524,15.3581,0.601701,-0.909198,0.818859,0.429702,15.369
2873.04,158.971,-89.1616,-169.917,0.068832,0.708847,0.0660574,-0.69888,1.12643,-0.0658476,0.111297,5.56293,-0.0214162,-0.161583,0.346526,-0.0271021,-0.185584,32.68,93.17,0.024999,1.58896,-0.065952,0.149208,0.139817,-0.0046188,-0.00855446,0.172309,-0.0600242,0.349232,0.0785896,-0.0224975,5.56472,15.3556,-0.0465021,-0.302663,0.0785896,-0.0224975,15.3585
2873.07,158.971,-89.1616,-169.917,0.068832,0.708847,0.0660574,-0.69888,1.12643,-0.0658476,0.111297,5.56293,-0.0214162,-0.161583,0.346526,-0.0271021,-0.185584,32.68,93.17,0.024999,1.58896,-0.065952,0.149208,0.139817,-0.0046188,-0.00855446,0.172309,-0.0600242,0.349232,0.0785896,-0.0224975,5.56472,15.3556,-0.0465021,-0.302663,0.0785896,-0.0224975,15.3585
2873.09,145.366,-88.789,-153.118,0.0516226,0.711872,0.0439779,-0.699027,1.07448,-0.0970996,0.122282,5.36729,-0.894977,0.288628,0.344572,-0.0280007,-0.173163,32.69,93.113,0.025001,1.56331,-0.147605,0.185361,0.134773,-0.00425644,0.002302,0.161779,-0.0469432,0.348028,-0.5001,-0.783361,5.3692,15.1588,-0.988584,0.103973,-0.5001,-0.783361,15.1629
2873.12,139.952,-88.441,-144.663,0.0349409,0.714056,0.0231773,-0.698832,1.06075,-0.0500818,0.0775086,5.22095,-0.112153,0.115951,0.344285,-0.0536228,-0.180874,32.67,92.996,0.025001,1.49674,-0.0909012,0.140499,0.129267,0.00263373,0.00444061,0.168638,-0.0622274,0.349015,-0.233496,-0.0108638,5.21821,15.0111,-0.266266,-0.10141,-0.233496,-0.0108638,15.012
2873.15,139.952,-88.441,-144.663,0.0349409,0.714056,0.0231773,-0.698832,1.06075,-0.0500818,0.0775086,5.22095,-0.112153,0.115951,0.344285,-0.0536228,-0.180874,32.67,92.996,0.025001,1.49674,-0.0909012,0.140499,0.129267,0.00263373,0.00444061,0.168638,-0.0622274,0.349015,-0.233496,-0.0108638,5.21821,15.0111,-0.266266,-0.10141,-0.233496,-0.0108638,15.012
2873.17,139.537,-88.3759,-141.304,0.0172917,0.714676,0.00452001,-0.699227,1.00308,0.0151967,-0.0216115,5.10621,0.034334,0.0799226,0.341331,-0.0565644,-0.171895,32.675,92.95,0.025001,1.41936,0.00154546,0.00691924,0.127814,0.00264284,0.00110684,0.162656,-0.0555168,0.345999,-0.18892,0.13069,5.10178,14.896,-0.139221,-0.136743,-0.18892,0.13069,14.8955
2873.2,139.537,-88.3759,-141.304,0.0172917,0.714676,0.00452001,-0.699227,1.00308,0.0151967,-0.0216115,5.10621,0.034334,0.0799226,0.341331,-0.0565644,-0.171895,32.675,92.95,0.025001,1.41936,0.00154546,0.00691924,0.127814,0.00264284,0.00110684,0.162656,-0.0555168,0.345999,-0.18892,0.13069,5.10178,14.896,-0.139221,-0.136743,-0.18892,0.13069,14.8955
2873.22,139.357,-88.4519,-139.725,0.00847302,0.714308,-0.00392653,-0.699769,0.972057,0.0555334,-0.0470125,5.23331,0.330048,-0.252224,0.342343,-0.0534989,-0.168464,32.685,92.894,0.024999,1.37386,0.0646589,-0.0354674,0.128783,0.000193461,0.000958415,0.161052,-0.0485171,0.346625,0.147049,0.420521,5.23083,15.0235,0.158973,-0.454127,0.147049,0.420521,15.0246
2873.25,139.357,-88.4519,-139.725,0.00847302,0.714308,-0.00392653,-0.699769,0.972057,0.0555334,-0.0470125,5.23331,0.330048,-0.252224,0.342343,-0.0534989,-0.168464,32.685,92.894,0.024999,1.37386,0.0646589,-0.0354674,0.128783,0.000193461,0.000958415,0.161052,-0.0485171,0.346625,0.147049,0.420521,5.23083,15.0235,0.158973,-0.454127,0.147049,0.420521,15.0246
2873.27,139.797,-88.7655,-137.385,-0.00983945,0.712624,-0.0199196,-0.701194,0.976402,0.0880899,-0.0901572,5.23534,0.181962,-0.279513,0.342093,-0.0760035,-0.168244,32.675,92.837,0.024999,1.36946,0.12815,-0.111295,0.129839,-0.000301764,-0.00371629,0.165631,-0.0640714,0.345791,0.185421,0.266405,5.23591,15.0268,0.0390559,-0.43484,0.185421,0.266405,15.0297
2873.3,138.787,-89.0849,-133.5,-0.0286956,0.710404,-0.0365217,-0.702259,1.02481,0.0803448,-0.0489551,5.17493,0.446648,-0.65614,0.343957,-0.0842012,-0.162379,32.685,92.781,0.024999,1.43558,0.116868,-0.0784295,0.129914,-0.00165755,-0.00999846,0.165297,-0.0652475,0.346675,0.549999,0.559677,5.17631,14.9674,0.333168,-0.76383,0.549999,0.559677,14.9701
2873.32,138.787,-89.0849,-133.5,-0.0286956,0.710404,-0.0365217,-0.702259,1.02481,0.0803448,-0.0489551,5.17493,0.446648,-0.65614,0.343957,-0.0842012,-0.162379,32.685,92.781,0.024999,1.43558,0.116868,-0.0784295,0.129914,-0.00165755,-0.00999846,0.165297,-0.0652475,0.346675,0.549999,0.559677,5.17631,14.9674,0.333168,-0.76383,0.549999,0.559677,14.9701
2873.35,127.33,-89.2791,-118.989,-0.0477005,0.707654,-0.0551485,-0.702787,1.09486,0.0938375,0.0241871,5.04753,-0.844163,0.0221407,0.343956,-0.0851411,-0.148723,32.685,92.751,0.024999,1.53349,0.129877,0.0106937,0.128915,-0.00703619,-0.00780471,0.15687,-0.0592151,0.345772,0.0620086,-0.787901,5.05629,14.8405,-0.951948,-0.0375781,0.0620086,-0.787901,14.85
2873.37,127.33,-89.2791,-118.989,-0.0477005,0.707654,-0.0551485,-0.702787,1.09486,0.0938375,0.0241871,5.04753,-0.844163,0.0221407,0.343956,-0.0851411,-0.148723,32.685,92.751,0.024999,1.53349,0.129877,0.0106937,0.128915,-0.00703619,-0.00780471,0.15687,-0.0592151,0.345772,0.0620086,-0.787901,5.05629,14.8405,-0.951948,-0.0375781,0.0620086,-0.787901,14.85
2873.4,114.334,-89.2622,-104.398,-0.0569354,0.705947,-0.0655331,-0.702925,1.1316,0.107644,0.0779843,5.1155,-0.297785,-0.0205063,0.345874,-0.0882446,-0.14632,32.69,92.649,0.025,1.57051,0.149864,0.0863026,0.127272,-0.00407768,-0.00295168,0.157511,-0.0576027,0.347415,0.0444054,-0.229687,5.11885,14.9084,-0.420042,-0.051891,0.0444054,-0.229687,14.9126
2873.42,94.1523,-88.9594,-80.9346,-0.0749622,0.702104,-0.087793,-0.702654,1.1403,0.108522,0.121873,5.00791,-0.724803,0.020488,0.344713,-0.105556,-0.137103,32.69,92.569,0.025001,1.62098,0.150164,0.17876,0.125263,-0.00157771,-0.0053882,0.157152,-0.0651533,0.346157,0.139187,-0.619456,5.02014,14.8,-0.900449,0.0485132,0.139187,-0.619456,14.8139
2873.45,94.1523,-88.9594,-80.9346,-0.0749622,0.702104,-0.087793,-0.702654,1.1403,0.108522,0.121873,5.00791,-0.724803,0.020488,0.344713,-0.105556,-0.137103,32.69,92.569,0.025001,1.62098,0.150164,0.17876,0.125263,-0.00157771,-0.0053882,0.157152,-0.0651533,0.346157,0.139187,-0.619456,5.02014,14.8,-0.900449,0.0485132,0.139187,-0.619456,14.8139
2873.47,85.1132,-88.5386,-68.6363,-0.0925329,0.697705,-0.110099,-0.701801,1.12037,0.100615,0.119162,5.06501,0.250259,-0.749254,0.343744,-0.105477,-0.128055,32.69,92.501,0.025001,1.58838,0.148357,0.182126,0.124292,-1.51E-05,-0.0084591,0.153461,-0.0560725,0.344948,0.658495,0.581049,5.05046,14.8556,0.0176227,-0.658255,0.658495,0.581049,14.8442
2873.5,85.1132,-88.5386,-68.6363,-0.0925329,0.697705,-0.110099,-0.701801,1.12037,0.100615,0.119162,5.06501,0.250259,-0.749254,0.343744,-0.105477,-0.128055,32.69,92.501,0.025001,1.58838,0.148357,0.182126,0.124292,-1.51E-05,-0.0084591,0.153461,-0.0560725,0.344948,0.658495,0.581049,5.05046,14.8556,0.0176227,-0.658255,0.658495,0.581049,14.8442
2873.52,81.4149,-88.1878,-61.7852,-0.10991,0.693141,-0.131133,-0.7002,1.08615,0.0766713,0.0717053,4.85499,-0.0817899,-0.0710083,0.343556,-0.122833,-0.1222,32.67,92.407,0.025001,1.5349,0.117049,0.133753,0.121518,0.000703111,-0.00187552,0.157988,-0.063874,0.34498,0.117281,0.0986587,4.85378,14.6438,-0.354722,0.075427,0.117281,0.0986587,14.6475
2873.55,81.4149,-88.1878,-61.7852,-0.10991,0.693141,-0.131133,-0.7002,1.08615,0.0766713,0.0717053,4.85499,-0.0817899,-0.0710083,0.343556,-0.122833,-0.1222,32.67,92.407,0.025001,1.5349,0.117049,0.133753,0.121518,0.000703111,-0.00187552,0.157988,-0.063874,0.34498,0.117281,0.0986587,4.85378,14.6438,-0.354722,0.075427,0.117281,0.0986587,14.6475
2873.57,80.6619,-88.0836,-59.4946,-0.118738,0.690951,-0.140975,-0.69901,1.08034,0.0337867,0.0374212,4.9156,0.147574,-0.631445,0.345396,-0.133083,-0.117452,32.675,92.396,0.024999,1.51259,0.0750348,0.0875788,0.122327,0.00815207,-0.0114248,0.159462,-0.0702641,0.347044,0.562188,0.527597,4.89787,14.7039,-0.134629,-0.465179,0.562188,0.527597,14.6916
2873.6,81.0545,-88.0238,-56.8696,-0.136727,0.686936,-0.159491,-0.695692,1.05297,-0.00502494,0.00199446,4.75705,0.217203,-0.0764679,0.345407,-0.133001,-0.103807,32.69,92.331,0.024999,1.47285,0.00043294,0.0244858,0.119326,0.000100368,-0.00149633,0.151041,-0.0670004,0.347086,0.00626133,0.391394,4.74651,14.545,-0.0656413,0.10813,0.00626133,0.391394,14.5403
2873.62,81.0545,-88.0238,-56.8696,-0.136727,0.686936,-0.159491,-0.695692,1.05297,-0.00502494,0.00199446,4.75705,0.217203,-0.0764679,0.345407,-0.133001,-0.103807,32.69,92.331,0.024999,1.47285,0.00043294,0.0244858,0.119326,0.000100368,-0.00149633,0.151041,-0.0670004,0.347086,0.00626133,0.391394,4.74651,14.545,-0.0656413,0.10813,0.00626133,0.391394,14.5403
2873.65,82.855,-88.0556,-55.6919,-0.154804,0.682989,-0.177247,-0.691481,1.04669,-0.0386171,0.00753095,4.79719,0.279446,-0.481914,0.345274,-0.145256,-0.100275,32.675,92.271,0.024999,1.45917,-0.043538,0.00882336,0.11883,0.00281747,-0.00460817,0.156991,-0.0717971,0.347228,0.321398,0.629848,4.77738,14.5853,0.00495958,-0.294615,0.321398,0.629848,14.5711
2873.68,82.855,-88.0556,-55.6919,-0.154804,0.682989,-0.177247,-0.691481,1.04669,-0.0386171,0.00753095,4.79719,0.279446,-0.481914,0.345274,-0.145256,-0.100275,32.675,92.271,0.024999,1.45917,-0.043538,0.00882336,0.11883,0.00281747,-0.00460817,0.156991,-0.0717971,0.347228,0.321398,0.629848,4.77738,14.5853,0.00495958,-0.294615,0.321398,0.629848,14.5711
2873.7,84.2633,-88.0885,-55.6001,-0.16393,0.680958,-0.186088,-0.689053,1.04381,-0.0423336,0.00510089,4.80261,-0.219626,-0.505235,0.345197,-0.152396,-0.096794,32.69,92.264,0.025001,1.47396,-0.0549459,0.00857981,0.118333,0.000660298,-0.00228932,0.159186,-0.0757955,0.347375,0.564674,0.208973,4.79646,14.5909,-0.489186,-0.320664,0.564674,0.208973,14.5902
2873.73,88.1069,-88.1016,-56.4397,-0.181745,0.676618,-0.204063,-0.683751,1.05467,-0.0303814,0.0382483,4.55582,0.262971,-0.0988519,0.344307,-0.145148,-0.0866787,32.67,92.158,0.025001,1.4744,-0.0503758,0.0511515,0.116095,-0.00531367,0.00111469,0.150352,-0.0665911,0.346538,-0.0489406,0.426418,4.54425,14.3442,-0.00741339,0.080521,-0.0489406,0.426418,14.338
2873.75,88.1069,-88.1016,-56.4397,-0.181745,0.676618,-0.204063,-0.683751,1.05467,-0.0303814,0.0382483,4.55582,0.262971,-0.0988519,0.344307,-0.145148,-0.0866787,32.67,92.158,0.025001,1.4744,-0.0503758,0.0511515,0.116095,-0.00531367,0.00111469,0.150352,-0.0665911,0.346538,-0.0489406,0.426418,4.54425,14.3442,-0.00741339,0.080521,-0.0489406,0.426418,14.338
2873.78,91.0802,-88.039,-56.4011,-0.199095,0.671486,-0.222327,-0.678262,1.06019,-0.000989517,0.0446501,4.40643,0.370633,-0.0628635,0.341276,-0.155229,-0.0742181,32.69,92.15,0.025001,1.48785,-0.00865703,0.0686966,0.112005,0.00605688,0.000892352,0.149134,-0.0736962,0.344095,-0.162025,0.491119,4.3921,14.1944,0.0914809,0.122596,-0.162025,0.491119,14.1858
2873.8,91.0802,-88.039,-56.4011,-0.199095,0.671486,-0.222327,-0.678262,1.06019,-0.000989517,0.0446501,4.40643,0.370633,-0.0628635,0.341276,-0.155229,-0.0742181,32.69,92.15,0.025001,1.48785,-0.00865703,0.0686966,0.112005,0.00605688,0.000892352,0.149134,-0.0736962,0.344095,-0.162025,0.491119,4.3921,14.1944,0.0914809,0.122596,-0.162025,0.491119,14.1858
2873.83,91.4043,-87.8698,-53.6771,-0.21604,0.665069,-0.241119,-0.672957,1.07701,0.0632936,0.0513205,4.37385,-0.027014,0.1464,0.344154,-0.160362,-0.0649233,32.69,92.037,0.025001,1.50476,0.0686749,0.0909493,0.110099,-0.00229402,0.00252219,0.149161,-0.0742572,0.347289,-0.103249,0.0516649,4.37486,14.1608,-0.320333,0.362044,-0.103249,0.0516649,14.1686
2873.85,91.4043,-87.8698,-53.6771,-0.21604,0.665069,-0.241119,-0.672957,1.07701,0.0632936,0.0513205,4.37385,-0.027014,0.1464,0.344154,-0.160362,-0.0649233,32.69,92.037,0.025001,1.50476,0.0686749,0.0909493,0.110099,-0.00229402,0.00252219,0.149161,-0.0742572,0.347289,-0.103249,0.0516649,4.37486,14.1608,-0.320333,0.362044,-0.103249,0.0516649,14.1686
2873.88,90.2379,-87.7304,-50.9674,-0.224354,0.661207,-0.250774,-0.67051,1.09138,0.105989,0.0639714,4.26052,0.353508,0.270121,0.343115,-0.166442,-0.0592271,32.67,91.988,0.024999,1.5189,0.123426,0.0918968,0.108288,0.00246854,0.00577665,0.15115,-0.0777027,0.346489,-0.433584,0.271342,4.25304,14.0466,0.0522135,0.514389,-0.433584,0.271342,14.0468
2873.91,86.612,-87.412,-44.3085,-0.24056,0.652667,-0.269614,-0.665932,1.03759,0.114277,0.037052,4.469,-0.683418,-0.188632,0.345235,-0.152087,-0.045623,32.675,91.912,0.024999,1.48278,0.165988,0.0670401,0.110424,-0.00382306,-0.00419477,0.137031,-0.0661373,0.348206,0.611437,-0.176684,4.47991,14.2528,-0.992348,0.127846,0.611437,-0.176684,14.2737
2873.93,86.612,-87.412,-44.3085,-0.24056,0.652667,-0.269614,-0.665932,1.03759,0.114277,0.037052,4.469,-0.683418,-0.188632,0.345235,-0.152087,-0.045623,32.675,91.912,0.024999,1.48278,0.165988,0.0670401,0.110424,-0.00382306,-0.00419477,0.137031,-0.0661373,0.348206,0.611437,-0.176684,4.47991,14.2528,-0.992348,0.127846,0.611437,-0.176684,14.2737
2873.96,83.648,-87.1552,-38.4074,-0.256528,0.644008,-0.287242,-0.661014,1.01398,0.0789645,0.00684422,4.38,-0.621516,-0.164876,0.343101,-0.169346,-0.0319059,32.675,91.829,0.025,1.43822,0.13198,0.0283808,0.109867,-0.00283482,-0.0121613,0.144608,-0.0795632,0.346659,0.581501,-0.10418,4.38735,14.1617,-0.923507,0.21604,0.581501,-0.10418,14.1811
2873.98,83.648,-87.1552,-38.4074,-0.256528,0.644008,-0.287242,-0.661014,1.01398,0.0789645,0.00684422,4.38,-0.621516,-0.164876,0.343101,-0.169346,-0.0319059,32.675,91.829,0.025,1.43822,0.13198,0.0283808,0.109867,-0.00283482,-0.0121613,0.144608,-0.0795632,0.346659,0.581501,-0.10418,4.38735,14.1617,-0.923507,0.21604,0.581501,-0.10418,14.1811
2874.01,80.656,-86.9822,-32.5844,-0.272362,0.635326,-0.303458,-0.655815,1.0137,0.0712061,-0.0155455,4.39767,-0.188523,-0.290838,0.345988,-0.173455,-0.0226209,32.685,91.818,0.024999,1.39477,0.116411,-0.00940563,0.108727,-0.000149151,-0.00682936,0.147136,-0.0809983,0.349422,0.372154,0.318657,4.38401,14.1778,-0.466196,0.143607,0.372154,0.318657,14.1778
2874.03,79.5811,-86.9263,-30.0926,-0.280362,0.631031,-0.311371,-0.652875,0.987579,0.0425003,-0.00635243,4.458,-0.248492,-0.558563,0.343103,-0.170259,-0.0137019,32.68,91.795,0.025,1.39296,0.0799282,-0.0104289,0.110076,-0.00526381,-0.0081619,0.14169,-0.0819841,0.346551,0.594902,0.497842,4.43236,14.2377,-0.51181,-0.10418,0.594902,0.497842,14.2261
2874.06,79.5811,-86.9263,-30.0926,-0.280362,0.631031,-0.311371,-0.652875,0.987579,0.0425003,-0.00635243,4.458,-0.248492,-0.558563,0.343103,-0.170259,-0.0137019,32.68,91.795,0.025,1.39296,0.0799282,-0.0104289,0.110076,-0.00526381,-0.0081619,0.14169,-0.0819841,0.346551,0.594902,0.497842,4.43236,14.2377,-0.51181,-0.10418,0.594902,0.497842,14.2261
2874.08,78.7746,-86.9166,-26.4376,-0.296616,0.622846,-0.326844,-0.645953,1.0341,-0.0162715,0.00567349,4.3402,0.716403,-1.02714,0.344962,-0.178489,-0.0135228,32.67,91.727,0.025,1.40126,-0.00494519,0.000603244,0.107812,-0.00106245,-0.0117879,0.153189,-0.0800588,0.348086,0.105581,1.47807,4.26729,14.1198,0.481859,-0.555436,0.105581,1.47807,14.061
2874.11,78.7746,-86.9166,-26.4376,-0.296616,0.622846,-0.326844,-0.645953,1.0341,-0.0162715,0.00567349,4.3402,0.716403,-1.02714,0.344962,-0.178489,-0.0135228,32.67,91.727,0.025,1.40126,-0.00494519,0.000603244,0.107812,-0.00106245,-0.0117879,0.153189,-0.0800588,0.348086,0.105581,1.47807,4.26729,14.1198,0.481859,-0.555436,0.105581,1.47807,14.061
2874.13,81.049,-86.9727,-25.7879,-0.312821,0.615115,-0.342819,-0.637379,1.01281,-0.0286668,0.0413136,4.16121,0.21987,0.0547626,0.34503,-0.173286,0.00120971,32.67,91.648,0.025,1.42454,-0.0499551,0.0626244,0.103058,-0.00557705,0.00406098,0.144561,-0.081633,0.348587,-0.177702,0.297314,4.15295,13.9413,-0.00514951,0.520489,-0.177702,0.297314,13.9467
2874.16,84.1978,-86.9726,-25.9898,-0.328496,0.606922,-0.359132,-0.628299,1.03426,-0.0289301,0.0617008,4.18929,-0.415322,-0.40039,0.344915,-0.18447,0.0126906,32.69,91.607,0.025001,1.45314,-0.0343099,0.0948235,0.102989,0.00229666,-0.00609296,0.151962,-0.0897222,0.349305,0.586292,0.341376,4.17404,13.9694,-0.641978,0.0645326,0.586292,0.341376,13.9678
2874.18,84.1978,-86.9726,-25.9898,-0.328496,0.606922,-0.359132,-0.628299,1.03426,-0.0289301,0.0617008,4.18929,-0.415322,-0.40039,0.344915,-0.18447,0.0126906,32.69,91.607,0.025001,1.45314,-0.0343099,0.0948235,0.102989,0.00229666,-0.00609296,0.151962,-0.0897222,0.349305,0.586292,0.341376,4.17404,13.9694,-0.641978,0.0645326,0.586292,0.341376,13.9678
2874.21,86.4424,-86.9401,-26.747,-0.336038,0.602697,-0.367559,-0.623486,1.05019,-0.00536435,0.105497,3.98145,-0.168237,0.167377,0.344928,-0.183427,0.016092,32.67,91.557,0.024999,1.45884,-0.0211548,0.130415,0.100623,0.000151477,0.002325,0.151394,-0.087935,0.34961,0.073998,-0.016954,3.9878,13.7612,-0.403522,0.634235,0.073998,-0.016954,13.7815
2874.23,86.4424,-86.9401,-26.747,-0.336038,0.602697,-0.367559,-0.623486,1.05019,-0.00536435,0.105497,3.98145,-0.168237,0.167377,0.344928,-0.183427,0.016092,32.67,91.557,0.024999,1.45884,-0.0211548,0.130415,0.100623,0.000151477,0.002325,0.151394,-0.087935,0.34961,0.073998,-0.016954,3.9878,13.7612,-0.403522,0.634235,0.073998,-0.016954,13.7815
2874.26,90.9022,-86.7037,-28.1867,-0.350279,0.593264,-0.385344,-0.613882,1.03878,0.062593,0.119481,3.84332,-0.233219,0.410629,0.343116,-0.172025,0.0329402,32.675,91.501,0.025,1.47739,0.0790611,0.179356,0.0976188,-0.00088578,0.00431381,0.137472,-0.0882232,0.34889,0.015543,-0.2501,3.8641,13.6209,-0.499228,0.90701,0.015543,-0.2501,13.6579
2874.28,90.9022,-86.7037,-28.1867,-0.350279,0.593264,-0.385344,-0.613882,1.03878,0.062593,0.119481,3.84332,-0.233219,0.410629,0.343116,-0.172025,0.0329402,32.675,91.501,0.025,1.47739,0.0790611,0.179356,0.0976188,-0.00088578,0.00431381,0.137472,-0.0882232,0.34889,0.015543,-0.2501,3.8641,13.6209,-0.499228,0.90701,0.015543,-0.2501,13.6579
2874.31,93.6686,-86.3626,-27.9945,-0.363641,0.582885,-0.402833,-0.604761,1.00608,0.0809892,0.0890958,3.90051,0.129384,0.385241,0.345958,-0.180233,0.0411281,32.67,91.41,0.024999,1.44227,0.116775,0.153925,0.0992732,0.00255562,-0.000948604,0.14587,-0.0895728,0.352932,-0.292457,-0.0502299,3.91038,13.6745,-0.162264,0.933878,-0.292457,-0.0502299,13.7041
2874.33,94.5901,-86.2017,-27.4711,-0.370174,0.577567,-0.411177,-0.600267,0.985343,0.0753372,0.0813287,4.06634,-0.234866,-0.117094,0.343042,-0.179137,0.0409701,32.67,91.354,0.025,1.41745,0.117274,0.136594,0.0994213,0.00220018,-0.00139069,0.147272,-0.084486,0.350171,0.240356,0.285078,4.0577,13.8386,-0.53415,0.458532,0.240356,0.285078,13.8514
2874.36,94.5901,-86.2017,-27.4711,-0.370174,0.577567,-0.411177,-0.600267,0.985343,0.0753372,0.0813287,4.06634,-0.234866,-0.117094,0.343042,-0.179137,0.0409701,32.67,91.354,0.025,1.41745,0.117274,0.136594,0.0994213,0.00220018,-0.00139069,0.147272,-0.084486,0.350171,0.240356,0.285078,4.0577,13.8386,-0.53415,0.458532,0.240356,0.285078,13.8514
2874.39,95.8257,-85.9691,-25.8366,-0.383559,0.566788,-0.426989,-0.591029,0.989102,0.0603492,0.036736,3.8345,-0.423972,0.27125,0.341166,-0.173837,0.0635641,32.67,91.32,0.024999,1.40858,0.0820586,0.0845198,0.0963862,0.00396996,-0.00301541,0.139123,-0.0950278,0.349669,0.278087,-0.130748,3.85517,13.604,-0.724003,0.890882,0.278087,-0.130748,13.6489
2874.41,95.8257,-85.9691,-25.8366,-0.383559,0.566788,-0.426989,-0.591029,0.989102,0.0603492,0.036736,3.8345,-0.423972,0.27125,0.341166,-0.173837,0.0635641,32.67,91.32,0.024999,1.40858,0.0820586,0.0845198,0.0963862,0.00396996,-0.00301541,0.139123,-0.0950278,0.349669,0.278087,-0.130748,3.85517,13.604,-0.724003,0.890882,0.278087,-0.130748,13.6489
2874.44,95.3198,-85.7998,-22.5228,-0.397121,0.555398,-0.441507,-0.582151,0.977927,0.0601655,-0.00973579,3.69253,-0.779037,0.525543,0.338306,-0.168567,0.0770116,32.67,91.252,0.025001,1.36758,0.0842601,0.0130636,0.0952984,-0.00153014,-0.00583295,0.135918,-0.0983872,0.347337,0.563482,-0.461059,3.74003,13.46,-1.0538,1.18814,0.563482,-0.461059,13.5338
2874.46,95.3198,-85.7998,-22.5228,-0.397121,0.555398,-0.441507,-0.582151,0.977927,0.0601655,-0.00973579,3.69253,-0.779037,0.525543,0.338306,-0.168567,0.0770116,32.67,91.252,0.025001,1.36758,0.0842601,0.0130636,0.0952984,-0.00153014,-0.00583295,0.135918,-0.0983872,0.347337,0.563482,-0.461059,3.74003,13.46,-1.0538,1.18814,0.563482,-0.461059,13.5338
2874.49,93.6503,-85.5653,-18.0157,-0.410598,0.54281,-0.455872,-0.57354,1.01998,0.125444,-0.00470241,3.67094,-0.961218,0.73146,0.342127,-0.175838,0.0750046,32.67,91.184,0.025,1.39759,0.156381,-0.0146481,0.0910065,0.00018304,0.00903667,0.150023,-0.0895092,0.350823,0.731425,-0.66083,3.73672,13.4354,-1.19543,1.45162,0.731425,-0.66083,13.5305
2874.51,92.6775,-85.4048,-15.6027,-0.417216,0.536049,-0.463166,-0.569262,0.997266,0.114695,-0.0239317,3.76662,-0.415186,0.0924104,0.340295,-0.166454,0.0964216,32.675,91.176,0.025001,1.41775,0.178264,-0.0177254,0.0952489,-0.00141834,-0.0047835,0.139375,-0.103535,0.350228,0.36987,0.119148,3.77059,13.5289,-0.626229,0.848142,0.36987,0.119148,13.5643
2874.54,92.6775,-85.4048,-15.6027,-0.417216,0.536049,-0.463166,-0.569262,0.997266,0.114695,-0.0239317,3.76662,-0.415186,0.0924104,0.340295,-0.166454,0.0964216,32.675,91.176,0.025001,1.41775,0.178264,-0.0177254,0.0952489,-0.00141834,-0.0047835,0.139375,-0.103535,0.350228,0.36987,0.119148,3.77059,13.5289,-0.626229,0.848142,0.36987,0.119148,13.5643
2874.56,91.212,-85.1762,-11.2951,-0.430516,0.5229,-0.476933,-0.560149,0.952397,0.0543165,-0.0209834,3.83397,-0.223631,-0.23203,0.341306,-0.163396,0.0987151,32.675,91.116,0.024999,1.37268,0.0969366,-0.02238,0.0959823,-0.00381015,-0.0138284,0.142973,-0.0966461,0.350929,0.253994,0.510981,3.80494,13.593,-0.38494,0.575602,0.253994,0.510981,13.5987
2874.59,91.212,-85.1762,-11.2951,-0.430516,0.5229,-0.476933,-0.560149,0.952397,0.0543165,-0.0209834,3.83397,-0.223631,-0.23203,0.341306,-0.163396,0.0987151,32.675,91.116,0.024999,1.37268,0.0969366,-0.02238,0.0959823,-0.00381015,-0.0138284,0.142973,-0.0966461,0.350929,0.253994,0.510981,3.80494,13.593,-0.38494,0.575602,0.253994,0.510981,13.5987
2874.61,90.7544,-85.0808,-8.09839,-0.443471,0.510769,-0.489571,-0.550244,0.9482,0.0223616,0.00748309,3.67354,0.0162276,-0.11368,0.342245,-0.167451,0.109039,32.67,91.071,0.025,1.33783,0.0416285,0.006644,0.0924867,-0.000424008,-0.00532266,0.151747,-0.0997189,0.352264,-0.00570522,0.429384,3.65016,13.4312,-0.102082,0.717777,-0.00570522,0.429384,13.4439
2874.64,91.882,-85.0644,-6.44405,-0.456223,0.499113,-0.502294,-0.538932,0.981902,-0.0108519,0.0649156,3.54994,0.81982,-0.233877,0.341342,-0.16124,0.116889,32.67,90.969,0.024999,1.37779,-0.00414325,0.0783604,0.0918037,-0.00606221,-0.00228907,0.150451,-0.0994936,0.351627,-0.808612,0.602406,3.50887,13.3074,0.72525,0.603432,-0.808612,0.602406,13.3026
2874.66,91.882,-85.0644,-6.44405,-0.456223,0.499113,-0.502294,-0.538932,0.981902,-0.0108519,0.0649156,3.54994,0.81982,-0.233877,0.341342,-0.16124,0.116889,32.67,90.969,0.024999,1.37779,-0.00414325,0.0783604,0.0918037,-0.00606221,-0.00228907,0.150451,-0.0994936,0.351627,-0.808612,0.602406,3.50887,13.3074,0.72525,0.603432,-0.808612,0.602406,13.3026
2874.69,93.0165,-85.0805,-6.14938,-0.462592,0.493332,-0.508802,-0.532684,1.00218,-0.0212854,0.0715851,3.51588,0.444647,-0.147752,0.339486,-0.152982,0.121259,32.67,90.991,0.025001,1.39955,-0.0245911,0.104098,0.0913394,0.00112427,-0.00815716,0.144567,-0.0998619,0.34998,-0.451736,0.47221,3.48625,13.2736,0.354678,0.687296,-0.451736,0.47221,13.28
2874.71,93.0165,-85.0805,-6.14938,-0.462592,0.493332,-0.508802,-0.532684,1.00218,-0.0212854,0.0715851,3.51588,0.444647,-0.147752,0.339486,-0.152982,0.121259,32.67,90.991,0.025001,1.39955,-0.0245911,0.104098,0.0913394,0.00112427,-0.00815716,0.144567,-0.0998619,0.34998,-0.451736,0.47221,3.48625,13.2736,0.354678,0.687296,-0.451736,0.47221,13.28
2874.74,96.1789,-85.0938,-6.44554,-0.474754,0.481785,-0.522002,-0.519621,0.98909,-0.00651818,0.101687,3.49633,0.258192,-0.0954042,0.340513,-0.148858,0.130365,32.67,90.912,0.025001,1.39217,-0.0163158,0.147971,0.0876192,0.00113869,-0.000184907,0.145058,-0.101571,0.351774,-0.289881,0.39344,3.47293,13.2542,0.164163,0.736909,-0.289881,0.39344,13.2667
2874.76,96.1789,-85.0938,-6.44554,-0.474754,0.481785,-0.522002,-0.519621,0.98909,-0.00651818,0.101687,3.49633,0.258192,-0.0954042,0.340513,-0.148858,0.130365,32.67,90.912,0.025001,1.39217,-0.0163158,0.147971,0.0876192,0.00113869,-0.000184907,0.145058,-0.101571,0.351774,-0.289881,0.39344,3.47293,13.2542,0.164163,0.736909,-0.289881,0.39344,13.2667
2874.79,99.6784,-84.9803,-7.17709,-0.485436,0.470048,-0.535172,-0.506949,0.969058,0.0473226,0.114924,3.56707,-0.00336212,0.046226,0.336694,-0.142492,0.151712,32.67,90.855,0.025001,1.34491,0.0595389,0.170647,0.0864321,0.0012047,0.00601114,0.143916,-0.115672,0.350131,-0.0471254,0.261811,3.55744,13.3232,-0.110425,0.896452,-0.0471254,0.261811,13.3512
2874.81,102.803,-84.817,-7.54326,-0.495634,0.457787,-0.548124,-0.494305,0.942883,0.0315394,0.0859375,3.44554,-0.192232,0.105374,0.337649,-0.144541,0.155193,32.67,90.765,0.025001,1.31971,0.0541739,0.146462,0.086843,-7.60E-05,-0.00462531,0.151242,-0.110857,0.351881,0.131991,0.216732,3.44316,13.1992,-0.308377,0.982465,0.131991,0.216732,13.2369
2874.84,102.803,-84.817,-7.54326,-0.495634,0.457787,-0.548124,-0.494305,0.942883,0.0315394,0.0859375,3.44554,-0.192232,0.105374,0.337649,-0.144541,0.155193,32.67,90.765,0.025001,1.31971,0.0541739,0.146462,0.086843,-7.60E-05,-0.00462531,0.151242,-0.110857,0.351881,0.131991,0.216732,3.44316,13.1992,-0.308377,0.982465,0.131991,0.216732,13.2369
2874.86,103.831,-84.7658,-7.22343,-0.500814,0.45159,-0.55405,-0.488141,0.927233,0.0172932,0.0541024,3.49819,0.321148,-0.395987,0.337684,-0.141458,0.157437,32.675,90.753,0.024999,1.31826,0.0411669,0.10794,0.0863225,0.00593521,-0.00497653,0.151096,-0.109497,0.352148,-0.440436,0.664531,3.44408,13.2511,0.208805,0.490389,-0.440436,0.664531,13.2378
2874.89,103.831,-84.7658,-7.22343,-0.500814,0.45159,-0.55405,-0.488141,0.927233,0.0172932,0.0541024,3.49819,0.321148,-0.395987,0.337684,-0.141458,0.157437,32.675,90.753,0.024999,1.31826,0.0411669,0.10794,0.0863225,0.00593521,-0.00497653,0.151096,-0.109497,0.352148,-0.440436,0.664531,3.44408,13.2511,0.208805,0.490389,-0.440436,0.664531,13.2378
2874.92,104.415,-84.7323,-5.26598,-0.511149,0.439335,-0.56428,-0.476759,0.848676,-0.00282147,-0.0149265,3.4292,0.177398,-0.300965,0.332954,-0.128981,0.170717,32.67,90.674,0.024999,1.22169,0.00866535,0.0140981,0.0853706,0.000590309,-0.00165408,0.146682,-0.117688,0.348242,-0.301034,0.57256,3.3857,13.1816,0.0948738,0.594396,-0.301034,0.57256,13.1795
2874.94,102.572,-84.787,-1.06872,-0.521745,0.427037,-0.5723,-0.466791,0.792591,-0.0242951,-0.0906413,3.35413,-0.0913594,-0.1753,0.334964,-0.123886,0.175313,32.675,90.606,0.025,1.14573,-0.0219815,-0.102083,0.0830216,0.00526921,-0.00232465,0.149573,-0.116665,0.349715,-0.0116086,0.486741,3.32449,13.1074,-0.107956,0.714389,-0.0116086,0.486741,13.1182
2874.97,102.572,-84.787,-1.06872,-0.521745,0.427037,-0.5723,-0.466791,0.792591,-0.0242951,-0.0906413,3.35413,-0.0913594,-0.1753,0.334964,-0.123886,0.175313,32.675,90.606,0.025,1.14573,-0.0219815,-0.102083,0.0830216,0.00526921,-0.00232465,0.149573,-0.116665,0.349715,-0.0116086,0.486741,3.32449,13.1074,-0.107956,0.714389,-0.0116086,0.486741,13.1182
2874.99,99.1714,-84.8668,4.60424,-0.532531,0.41451,-0.579062,-0.457472,0.814305,-0.0376584,-0.103989,3.37711,0.00512704,-0.43045,0.338823,-0.128061,0.177824,32.67,90.561,0.024999,1.12573,-0.0416015,-0.149115,0.0836192,0.00124563,-0.00378353,0.161782,-0.111626,0.352403,-0.155366,0.71345,3.32521,13.1316,0.0754685,0.443005,-0.155366,0.71345,13.119
2875.02,99.1714,-84.8668,4.60424,-0.532531,0.41451,-0.579062,-0.457472,0.814305,-0.0376584,-0.103989,3.37711,0.00512704,-0.43045,0.338823,-0.128061,0.177824,32.67,90.561,0.024999,1.12573,-0.0416015,-0.149115,0.0836192,0.00124563,-0.00378353,0.161782,-0.111626,0.352403,-0.155366,0.71345,3.32521,13.1316,0.0754685,0.443005,-0.155366,0.71345,13.119
2875.04,97.4833,-84.9105,7.43982,-0.537935,0.408219,-0.582352,-0.452603,0.799444,-0.0391436,-0.100308,3.3338,0.072169,-0.336286,0.339921,-0.116847,0.175489,32.67,90.55,0.025,1.12867,-0.0569805,-0.135736,0.0825772,-0.00276374,-0.0020749,0.15409,-0.10896,0.352676,-0.194687,0.598324,3.29191,13.0889,0.184669,0.525229,-0.194687,0.598324,13.0857
2875.07,97.4833,-84.9105,7.43982,-0.537935,0.408219,-0.582352,-0.452603,0.799444,-0.0391436,-0.100308,3.3338,0.072169,-0.336286,0.339921,-0.116847,0.175489,32.67,90.55,0.025,1.12867,-0.0569805,-0.135736,0.0825772,-0.00276374,-0.0020749,0.15409,-0.10896,0.352676,-0.194687,0.598324,3.29191,13.0889,0.184669,0.525229,-0.194687,0.598324,13.0857
2875.09,95.1331,-84.9572,12.1689,-0.548362,0.395393,-0.589573,-0.442003,0.851605,-0.0159888,-0.0388836,3.31455,-0.398919,-0.110084,0.341033,-0.10553,0.190211,32.69,90.485,0.025001,1.18947,-0.0269659,-0.063301,0.0811146,-0.00463876,0.00172946,0.154587,-0.11973,0.354102,0.322127,0.513193,3.28487,13.0704,-0.217447,0.731464,0.322127,0.513193,13.0786
2875.12,95.133,-84.9754,14.7005,-0.558069,0.382362,-0.598095,-0.429698,0.895121,0.00592665,0.0323749,3.09624,-0.136578,0.212276,0.338119,-0.104427,0.19119,32.67,90.459,0.025001,1.25017,0.00305542,0.0393268,0.079621,-0.00135885,-0.000984819,0.160397,-0.114317,0.350695,0.176178,0.117399,3.09929,12.8523,0.0810947,1.04196,0.176178,0.117399,12.893
2875.14,95.133,-84.9754,14.7005,-0.558069,0.382362,-0.598095,-0.429698,0.895121,0.00592665,0.0323749,3.09624,-0.136578,0.212276,0.338119,-0.104427,0.19119,32.67,90.459,0.025001,1.25017,0.00305542,0.0393268,0.079621,-0.00135885,-0.000984819,0.160397,-0.114317,0.350695,0.176178,0.117399,3.09929,12.8523,0.0810947,1.04196,0.176178,0.117399,12.893
2875.17,96.0143,-84.9662,15.145,-0.562599,0.375678,-0.602878,-0.422949,0.925928,0.0332216,0.0615973,3.01731,-0.517287,0.289938,0.339128,-0.101376,0.192346,32.67,90.425,0.024999,1.29691,0.0311613,0.0817949,0.0784589,-0.00676836,-0.00203807,0.160789,-0.112582,0.351787,0.559271,0.180178,3.01837,12.7733,-0.292774,1.11943,0.559271,0.180178,12.8121
2875.19,96.0143,-84.9662,15.145,-0.562599,0.375678,-0.602878,-0.422949,0.925928,0.0332216,0.0615973,3.01731,-0.517287,0.289938,0.339128,-0.101376,0.192346,32.67,90.425,0.024999,1.29691,0.0311613,0.0817949,0.0784589,-0.00676836,-0.00203807,0.160789,-0.112582,0.351787,0.559271,0.180178,3.01837,12.7733,-0.292774,1.11943,0.559271,0.180178,12.8121
2875.22,99.3601,-84.7937,14.577,-0.570555,0.361327,-0.613858,-0.408764,0.984802,0.113254,0.0973807,3.09221,-0.594053,0.135002,0.336431,-0.0817578,0.210202,32.67,90.357,0.024999,1.37718,0.153594,0.142195,0.0772299,-0.00451053,0.00035227,0.154924,-0.128085,0.351636,0.552111,0.394417,3.07774,12.8456,-0.370383,0.995096,0.552111,0.394417,12.8715
2875.24,103.705,-84.4638,13.0754,-0.577217,0.346171,-0.625775,-0.394198,0.963728,0.159943,0.113455,2.93918,0.199555,0.086717,0.33543,-0.0838061,0.205624,32.67,90.334,0.025,1.37538,0.221966,0.170515,0.0765056,0.00198359,-0.00479092,0.159598,-0.113547,0.351359,-0.206403,0.108742,2.93798,12.6872,0.413311,1.00707,-0.206403,0.108742,12.7317
2875.27,103.705,-84.4638,13.0754,-0.577217,0.346171,-0.625775,-0.394198,0.963728,0.159943,0.113455,2.93918,0.199555,0.086717,0.33543,-0.0838061,0.205624,32.67,90.334,0.025,1.37538,0.221966,0.170515,0.0765056,0.00198359,-0.00479092,0.159598,-0.113547,0.351359,-0.206403,0.108742,2.93798,12.6872,0.413311,1.00707,-0.206403,0.108742,12.7317
2875.29,107.691,-84.054,11.8664,-0.582964,0.330853,-0.637399,-0.380016,0.94033,0.157707,0.102025,3.05686,0.0542904,-0.249039,0.334584,-0.0734233,0.22708,32.67,90.255,0.024999,1.3496,0.243221,0.15859,0.0773774,-0.00594003,-0.00829007,0.165015,-0.127225,0.354241,-0.265929,0.490346,3.01632,12.7979,0.262914,0.743835,-0.265929,0.490346,12.8101
2875.32,107.691,-84.054,11.8664,-0.582964,0.330853,-0.637399,-0.380016,0.94033,0.157707,0.102025,3.05686,0.0542904,-0.249039,0.334584,-0.0734233,0.22708,32.67,90.255,0.024999,1.3496,0.243221,0.15859,0.0773774,-0.00594003,-0.00829007,0.165015,-0.127225,0.354241,-0.265929,0.490346,3.01632,12.7979,0.262914,0.743835,-0.265929,0.490346,12.8101
2875.34,109.144,-83.868,11.7081,-0.585683,0.323537,-0.642526,-0.373443,0.866528,0.144533,0.0672712,2.9841,-0.261813,0.495181,0.334599,-0.0723731,0.231619,32.67,90.21,0.025,1.26088,0.215632,0.120821,0.0753138,0.00268704,-0.000588983,0.168792,-0.126816,0.355343,0.373359,0.0126206,3.01314,12.7218,-0.0495186,1.51958,0.373359,0.0126206,12.8069
2875.37,109.144,-83.868,11.7081,-0.585683,0.323537,-0.642526,-0.373443,0.866528,0.144533,0.0672712,2.9841,-0.261813,0.495181,0.334599,-0.0723731,0.231619,32.67,90.21,0.025,1.26088,0.215632,0.120821,0.0753138,0.00268704,-0.000588983,0.168792,-0.126816,0.355343,0.373359,0.0126206,3.01314,12.7218,-0.0495186,1.51958,0.373359,0.0126206,12.8069
2875.39,110.857,-83.5869,12.4832,-0.591507,0.309178,-0.651378,-0.360881,0.849294,0.0814931,0.015537,3.03553,0.475053,-0.265209,0.333678,-0.0672477,0.229245,32.67,90.165,0.024999,1.19629,0.131727,0.0534764,0.075452,0.00490895,-0.00626069,0.168439,-0.118503,0.354967,-0.663002,0.276395,2.99908,12.768,0.71151,0.802866,-0.663002,0.276395,12.7928
2875.42,110.629,-83.4431,15.007,-0.598023,0.295332,-0.657948,-0.349647,0.777925,0.0202142,-0.0456547,2.96629,0.0319727,-0.262067,0.332873,-0.0528064,0.244974,32.67,90.085,0.025001,1.07837,0.0443029,-0.0442744,0.0736891,0.00213819,-0.00273162,0.171743,-0.131393,0.356154,-0.29745,0.509868,2.91893,12.696,0.321558,0.81815,-0.29745,0.509868,12.7127
2875.45,110.629,-83.4431,15.007,-0.598023,0.295332,-0.657948,-0.349647,0.777925,0.0202142,-0.0456547,2.96629,0.0319727,-0.262067,0.332873,-0.0528064,0.244974,32.67,90.085,0.025001,1.07837,0.0443029,-0.0442744,0.0736891,0.00213819,-0.00273162,0.171743,-0.131393,0.356154,-0.29745,0.509868,2.91893,12.696,0.321558,0.81815,-0.29745,0.509868,12.7127
2875.47,108.815,-83.4268,18.9233,-0.605151,0.282222,-0.662427,-0.339608,0.718996,-0.0335622,-0.09408,2.85231,0.510019,-0.0742266,0.331987,-0.0446125,0.242571,32.69,90.044,0.025001,1.02203,-0.0430942,-0.109068,0.0725826,0.000330088,-0.00652139,0.171034,-0.127213,0.354415,-0.554268,0.0562008,2.84446,12.5817,0.873601,0.986304,-0.554268,0.0562008,12.6382
2875.5,108.815,-83.4268,18.9233,-0.605151,0.282222,-0.662427,-0.339608,0.718996,-0.0335622,-0.09408,2.85231,0.510019,-0.0742266,0.331987,-0.0446125,0.242571,32.69,90.044,0.025001,1.02203,-0.0430942,-0.109068,0.0725826,0.000330088,-0.00652139,0.171034,-0.127213,0.354415,-0.554268,0.0562008,2.84446,12.5817,0.873601,0.986304,-0.554268,0.0562008,12.6382
2875.52,107.482,-83.4013,21.2399,-0.60861,0.275752,-0.664245,-0.335161,0.692587,-0.010279,-0.115903,2.80144,0.247441,0.364084,0.333913,-0.0467207,0.240415,32.67,90.029,0.024999,0.967479,-0.0262117,-0.143082,0.0700906,-0.00209891,0.00806045,0.174902,-0.120435,0.355507,-0.0628645,-0.12907,2.83218,12.5303,0.655163,1.41308,-0.0628645,-0.12907,12.6259
2875.55,104.927,-83.337,25.8101,-0.61551,0.262526,-0.667851,-0.325888,0.71288,-0.0349913,-0.0817922,2.91301,-0.231283,-0.0743593,0.334144,-0.0262423,0.243627,32.67,89.983,0.024999,1.00327,-0.0383072,-0.124744,0.0727143,-0.00465892,-0.00646395,0.168525,-0.128653,0.356009,0.0399427,0.532776,2.87389,12.6406,0.263485,0.948655,0.0399427,0.532776,12.6676
2875.57,104.927,-83.337,25.8101,-0.61551,0.262526,-0.667851,-0.325888,0.71288,-0.0349913,-0.0817922,2.91301,-0.231283,-0.0743593,0.334144,-0.0262423,0.243627,32.67,89.983,0.024999,1.00327,-0.0383072,-0.124744,0.0727143,-0.00465892,-0.00646395,0.168525,-0.128653,0.356009,0.0399427,0.532776,2.87389,12.6406,0.263485,0.948655,0.0399427,0.532776,12.6676
2875.6,103.582,-83.3582,29.2985,-0.622345,0.249506,-0.671809,-0.31481,0.776993,-0.0302635,-0.0103733,2.85067,-0.163828,-0.289729,0.335224,-0.0170254,0.249271,32.67,89.927,0.025,1.07016,-0.0412871,-0.0292586,0.0699584,-0.00252124,-0.00152777,0.172664,-0.132021,0.357154,-0.15401,0.642106,2.79304,12.5787,0.390498,0.698127,-0.15401,0.642106,12.5868
2875.62,103.582,-83.3582,29.2985,-0.622345,0.249506,-0.671809,-0.31481,0.776993,-0.0302635,-0.0103733,2.85067,-0.163828,-0.289729,0.335224,-0.0170254,0.249271,32.67,89.927,0.025,1.07016,-0.0412871,-0.0292586,0.0699584,-0.00252124,-0.00152777,0.172664,-0.132021,0.357154,-0.15401,0.642106,2.79304,12.5787,0.390498,0.698127,-0.15401,0.642106,12.5868
2875.65,104.207,-83.4284,30.9995,-0.628527,0.236441,-0.67686,-0.301512,0.854944,0.0153821,0.0663839,2.72967,-0.0953731,0.00981867,0.334234,-0.0180514,0.244683,32.67,89.893,0.024999,1.1602,0.00998198,0.0872764,0.0677174,-0.00316681,0.00273531,0.176647,-0.121223,0.354977,-0.00244253,0.363347,2.70708,12.4591,0.481897,0.970576,-0.00244253,0.363347,12.5008
2875.67,104.207,-83.4284,30.9995,-0.628527,0.236441,-0.67686,-0.301512,0.854944,0.0153821,0.0663839,2.72967,-0.0953731,0.00981867,0.334234,-0.0180514,0.244683,32.67,89.893,0.024999,1.1602,0.00998198,0.0872764,0.0677174,-0.00316681,0.00273531,0.176647,-0.121223,0.354977,-0.00244253,0.363347,2.70708,12.4591,0.481897,0.970576,-0.00244253,0.363347,12.5008
2875.7,105.408,-83.4553,31.0744,-0.631271,0.229533,-0.680041,-0.293862,0.904,0.0465734,0.104553,2.70294,-0.623647,0.263359,0.334245,-0.0170209,0.245809,32.67,89.859,0.025,1.24244,0.0502661,0.140696,0.0662775,-0.00210401,0.00574451,0.179501,-0.118921,0.355062,0.538721,0.567301,2.67434,12.4329,-0.0474788,1.21945,0.538721,0.567301,12.4681
2875.72,108.679,-83.4799,30.4254,-0.636106,0.215435,-0.686856,-0.277824,0.899589,0.073576,0.117643,2.43491,-0.0597313,0.423588,0.333424,-0.00365162,0.25359,32.67,89.78,0.025001,1.27063,0.0942409,0.179821,0.0641643,-0.0017009,-0.00180918,0.181506,-0.126065,0.355887,0.270053,0.0318145,2.4572,12.1653,0.503454,1.38254,0.270053,0.0318145,12.2509
2875.75,108.679,-83.4799,30.4254,-0.636106,0.215435,-0.686856,-0.277824,0.899589,0.073576,0.117643,2.43491,-0.0597313,0.423588,0.333424,-0.00365162,0.25359,32.67,89.78,0.025001,1.27063,0.0942409,0.179821,0.0641643,-0.0017009,-0.00180918,0.181506,-0.126065,0.355887,0.270053,0.0318145,2.4572,12.1653,0.503454,1.38254,0.270053,0.0318145,12.2509
2875.77,112.423,-83.3525,29.2192,-0.639517,0.201251,-0.693957,-0.262564,0.878171,0.12964,0.0916708,2.65141,-0.473877,0.536878,0.331529,0.00150465,0.252305,32.65,89.719,0.025001,1.23473,0.1827,0.153654,0.063635,0.00423007,0.00952595,0.181706,-0.120903,0.354876,0.597383,0.32362,2.66105,12.3793,0.0795605,1.52636,0.597383,0.32362,12.4548
2875.8,112.423,-83.3525,29.2192,-0.639517,0.201251,-0.693957,-0.262564,0.878171,0.12964,0.0916708,2.65141,-0.473877,0.536878,0.331529,0.00150465,0.252305,32.65,89.719,0.025001,1.23473,0.1827,0.153654,0.063635,0.00423007,0.00952595,0.181706,-0.120903,0.354876,0.597383,0.32362,2.66105,12.3793,0.0795605,1.52636,0.597383,0.32362,12.4548
2875.82,114.003,-83.2681,28.8935,-0.64113,0.194001,-0.697285,-0.255166,0.858327,0.0899853,0.0741437,2.84133,-0.310178,-0.768439,0.330575,0.00356788,0.251098,32.665,89.685,0.024999,1.21859,0.16567,0.129411,0.0677644,-0.000777469,-0.00965568,0.181726,-0.117525,0.354269,-0.558939,1.01003,2.7253,12.5676,0.24455,0.23672,-0.558939,1.01003,12.519
2875.85,115.736,-83.2431,29.6225,-0.645419,0.179705,-0.702318,-0.240601,0.849796,0.0111603,0.0466763,2.67764,-0.0846003,-0.384709,0.332765,0.0240736,0.266916,32.67,89.666,0.024999,1.19636,0.0379586,0.0838072,0.0669549,0.00175887,-0.007432,0.188178,-0.134736,0.359154,-0.404088,0.569726,2.61478,12.4034,0.484969,0.616996,-0.404088,0.569726,12.4085
2875.87,115.736,-83.2431,29.6225,-0.645419,0.179705,-0.702318,-0.240601,0.849796,0.0111603,0.0466763,2.67764,-0.0846003,-0.384709,0.332765,0.0240736,0.266916,32.67,89.666,0.024999,1.19636,0.0379586,0.0838072,0.0669549,0.00175887,-0.007432,0.188178,-0.134736,0.359154,-0.404088,0.569726,2.61478,12.4034,0.484969,0.616996,-0.404088,0.569726,12.4085
2875.9,116.174,-83.3293,31.5847,-0.650468,0.165572,-0.705837,-0.226433,0.825797,-0.0461607,0.0157719,2.73831,-0.367594,-0.491782,0.330887,0.0312346,0.258787,32.67,89.587,0.024999,1.16128,-0.0400136,0.0437724,0.0663171,-0.000396429,-0.00869654,0.18456,-0.128543,0.356156,-0.358332,0.85503,2.64874,12.4658,0.228271,0.477361,-0.358332,0.85503,12.4425
2875.93,116.174,-83.3293,31.5847,-0.650468,0.165572,-0.705837,-0.226433,0.825797,-0.0461607,0.0157719,2.73831,-0.367594,-0.491782,0.330887,0.0312346,0.258787,32.67,89.587,0.024999,1.16128,-0.0400136,0.0437724,0.0663171,-0.000396429,-0.00869654,0.18456,-0.128543,0.356156,-0.358332,0.85503,2.64874,12.4658,0.228271,0.477361,-0.358332,0.85503,12.4425
2875.95,115.158,-83.452,34.9105,-0.655983,0.151425,-0.708032,-0.213183,0.790168,-0.065728,-0.0382749,2.53594,-0.220639,0.0281133,0.331171,0.0558733,0.273329,32.67,89.508,0.025001,1.12297,-0.0871878,-0.0270526,0.0639277,0.00314948,-0.00305652,0.192231,-0.149106,0.358217,0.0118003,0.438328,2.50763,12.2658,0.418519,0.943967,0.0118003,0.438328,12.3014
2875.98,115.158,-83.452,34.9105,-0.655983,0.151425,-0.708032,-0.213183,0.790168,-0.065728,-0.0382749,2.53594,-0.220639,0.0281133,0.331171,0.0558733,0.273329,32.67,89.508,0.025001,1.12297,-0.0871878,-0.0270526,0.0639277,0.00314948,-0.00305652,0.192231,-0.149106,0.358217,0.0118003,0.438328,2.50763,12.2658,0.418519,0.943967,0.0118003,0.438328,12.3014
2876,114.252,-83.481,36.9134,-0.65861,0.144381,-0.708852,-0.207163,0.758916,-0.0508355,-0.0563602,2.46371,0.0129486,0.15248,0.330136,0.0507626,0.269919,32.67,89.519,0.024999,1.07703,-0.0815033,-0.0572623,0.062426,-0.0014846,0.00278789,0.195922,-0.13902,0.355965,0.0120936,0.17091,2.46251,12.1941,0.680773,1.04151,0.0120936,0.17091,12.2563
2876.03,112.511,-83.3945,40.7807,-0.662977,0.130032,-0.710713,-0.19606,0.759147,0.00854314,-0.0768867,2.43381,-0.116727,0.234064,0.331127,0.0527298,0.260851,32.67,89.485,0.025,1.04553,-0.00346553,-0.103634,0.0608787,-0.00158018,0.00628719,0.194148,-0.12773,0.355612,0.154105,0.258332,2.42927,12.1625,0.619136,1.08715,0.154105,0.258332,12.223
2876.05,112.511,-83.3945,40.7807,-0.662977,0.130032,-0.710713,-0.19606,0.759147,0.00854314,-0.0768867,2.43381,-0.116727,0.234064,0.331127,0.0527298,0.260851,32.67,89.485,0.025,1.04553,-0.00346553,-0.103634,0.0608787,-0.00158018,0.00628719,0.194148,-0.12773,0.355612,0.154105,0.258332,2.42927,12.1625,0.619136,1.08715,0.154105,0.258332,12.223
2876.08,111.544,-83.19,43.8814,-0.666308,0.115327,-0.713072,-0.1851,0.759087,0.0389801,-0.0709327,2.44082,0.285721,-0.181123,0.334068,0.0546411,0.250744,32.65,89.436,0.025001,1.04533,0.0507362,-0.0981501,0.0609326,-0.000590202,0.000351117,0.190196,-0.115689,0.357633,-0.389999,0.0851303,2.4316,12.1655,1.09071,0.655928,-0.389999,0.0851303,12.2254
2876.1,111.544,-83.19,43.8814,-0.666308,0.115327,-0.713072,-0.1851,0.759087,0.0389801,-0.0709327,2.44082,0.285721,-0.181123,0.334068,0.0546411,0.250744,32.65,89.436,0.025001,1.04533,0.0507362,-0.0981501,0.0609326,-0.000590202,0.000351117,0.190196,-0.115689,0.357633,-0.389999,0.0851303,2.4316,12.1655,1.09071,0.655928,-0.389999,0.0851303,12.2254
2876.13,111.62,-82.9613,46.0059,-0.668845,0.100445,-0.715881,-0.17341,0.786559,0.0684907,-0.0387826,2.45605,-0.106927,0.0812243,0.33329,0.0720887,0.256211,32.67,89.383,0.025,1.08648,0.095989,-0.0543861,0.06135,-0.00664406,2.72E-05,0.193797,-0.12461,0.358941,0.00497789,0.347605,2.43503,12.176,0.75645,0.914807,0.00497789,0.347605,12.2288
2876.15,111.62,-82.9613,46.0059,-0.668845,0.100445,-0.715881,-0.17341,0.786559,0.0684907,-0.0387826,2.45605,-0.106927,0.0812243,0.33329,0.0720887,0.256211,32.67,89.383,0.025,1.08648,0.095989,-0.0543861,0.06135,-0.00664406,2.72E-05,0.193797,-0.12461,0.358941,0.00497789,0.347605,2.43503,12.176,0.75645,0.914807,0.00497789,0.347605,12.2288
2876.18,111.981,-82.8514,46.7632,-0.669869,0.0930202,-0.717382,-0.167289,0.772094,0.0758706,-0.033284,2.51652,-0.361867,-0.143234,0.328471,0.0773385,0.258188,32.67,89.372,0.025,1.09039,0.110898,-0.0391458,0.0604902,-0.00318565,0.00208579,0.196609,-0.126091,0.354938,-0.118473,0.676971,2.45194,12.2341,0.526048,0.691647,-0.118473,0.676971,12.2457
2876.2,112.932,-82.674,48.0521,-0.671735,0.0784392,-0.720201,-0.154692,0.781616,0.0694202,-0.00751001,2.40576,-0.0511958,-0.326957,0.327515,0.0793951,0.255843,32.665,89.3,0.024999,1.09207,0.104366,-0.00683032,0.0601606,-0.00414955,-0.00239897,0.199007,-0.118232,0.354179,-0.411146,0.435535,2.35339,12.1196,0.877648,0.50785,-0.411146,0.435535,12.1471
2876.23,112.932,-82.674,48.0521,-0.671735,0.0784392,-0.720201,-0.154692,0.781616,0.0694202,-0.00751001,2.40576,-0.0511958,-0.326957,0.327515,0.0793951,0.255843,32.665,89.3,0.024999,1.09207,0.104366,-0.00683032,0.0601606,-0.00414955,-0.00239897,0.199007,-0.118232,0.354179,-0.411146,0.435535,2.35339,12.1196,0.877648,0.50785,-0.411146,0.435535,12.1471
2876.25,114.089,-82.565,49.1468,-0.673467,0.0641827,-0.722695,-0.141542,0.788886,0.0580395,0.0172252,2.3409,0.781498,-0.312051,0.329672,0.0977862,0.260309,32.67,89.259,0.025,1.10011,0.0915099,0.0263423,0.0594742,-0.00384987,-0.00198622,0.20279,-0.127893,0.358505,-0.649166,-0.378768,2.3713,12.0523,1.74009,0.516941,-0.649166,-0.378768,12.165
2876.28,114.089,-82.565,49.1468,-0.673467,0.0641827,-0.722695,-0.141542,0.788886,0.0580395,0.0172252,2.3409,0.781498,-0.312051,0.329672,0.0977862,0.260309,32.67,89.259,0.025,1.10011,0.0915099,0.0263423,0.0594742,-0.00384987,-0.00198622,0.20279,-0.127893,0.358505,-0.649166,-0.378768,2.3713,12.0523,1.74009,0.516941,-0.649166,-0.378768,12.165
2876.3,115.009,-82.5232,50.4546,-0.675312,0.0502907,-0.724553,-0.128251,0.758944,0.0309353,0.0157778,2.25567,0.17904,0.00567233,0.328731,0.100872,0.259094,32.665,89.198,0.025,1.07263,0.051443,0.0303675,0.0582077,-0.00229232,-0.00350104,0.206524,-0.12204,0.357524,-0.164044,0.0923603,2.25493,11.9662,1.16177,0.817078,-0.164044,0.0923603,12.0487
