Timestamp,Yaw,Pitch,Roll,Qtn[0], Qtn[1], Qtn[2], Qtn[3],Rate X,Rate Y,Rate Z,Accel X,Accel Y,Accel Z,Mag X,Mag Y,Mag Z,Temp,Pres,dTime,dTheta X,dTheta Y,dTheta Z,dVel X,dVel Y,dVel Z,MagNed X,MagNed Y,MagNed Z,AccelNed X,AccelNed Y,AccelNed Z,LinearAccel X,LinearAccel Y,LinearAccel Z,LinearAccelNed X,LinearAccelNed Y,LinearAccelNed Z,Amplitude,Distance,Light 1,Light 2,Light 3,Light 4,Comments
0.496675,6.23194,14.654,91.5028,0.704582,0.127476,-0.0535995,0.696018,0.0103954,-0.00948903,-0.000515827,2.50092,-9.44559,0.0965164,-0.235978,0.410793,0.142052,23.7125,99.029,0.025,0.0102143,-0.00742218,0.00634832,0.0601811,-0.237826,0.00669293,-0.108032,-0.165482,0.453387,0.0135931,0.153615,-9.77033,0.0232814,0.026319,-0.151974,0.0135931,0.153615,0.0234203,
0.522047,6.10339,14.646,91.5329,0.704917,0.126623,-0.0543634,0.695776,0.016663,-0.0377778,0.00782566,2.50473,-9.50243,0.455298,-0.236949,0.407866,0.145341,23.71,99.018,0.024999,0.0269344,-0.0627788,0.0131928,0.0631477,-0.237014,0.00885176,-0.109814,-0.168832,0.450622,0.0397261,-0.197836,-9.83547,0.0284149,-0.0303067,0.201822,0.0397261,-0.197836,-0.0417194,
0.547303,6.10339,14.646,91.5329,0.704917,0.126623,-0.0543634,0.695776,0.016663,-0.0377778,0.00782566,2.50473,-9.50243,0.455298,-0.236949,0.407866,0.145341,23.71,99.018,0.024999,0.0269344,-0.0627788,0.0131928,0.0631477,-0.237014,0.00885176,-0.109814,-0.168832,0.450622,0.0397261,-0.197836,-9.83547,0.0284149,-0.0303067,0.201822,0.0397261,-0.197836,-0.0417194,
0.572578,5.98388,14.6303,91.5515,0.705179,0.125785,-0.0550119,0.695611,0.00752615,-0.019756,0.00664101,2.30812,-9.52701,0.313476,-0.239797,0.407906,0.139684,23.71,99.029,0.025,0.0173806,-0.0515799,0.0172183,0.0597713,-0.238016,0.00953512,-0.113569,-0.163407,0.451444,-0.167605,-0.0732776,-9.80592,-0.165602,-0.0542947,0.0568967,-0.167605,-0.0732776,-0.0121775,
0.597838,5.98388,14.6303,91.5515,0.705179,0.125785,-0.0550119,0.695611,0.00752615,-0.019756,0.00664101,2.30812,-9.52701,0.313476,-0.239797,0.407906,0.139684,23.71,99.029,0.025,0.0173806,-0.0515799,0.0172183,0.0597713,-0.238016,0.00953512,-0.113569,-0.163407,0.451444,-0.167605,-0.0732776,-9.80592,-0.165602,-0.0542947,0.0568967,-0.167605,-0.0732776,-0.0121775,
0.623065,5.95829,14.6208,91.5587,0.705261,0.125567,-0.0551153,0.695559,0.010834,-0.0234367,0.00513751,2.53106,-9.42749,0.167676,-0.242604,0.409973,0.141726,23.72,99.022,0.025001,0.00979981,-0.0216851,0.0180334,0.0611866,-0.237432,0.00677291,-0.115695,-0.16573,0.454058,0.0595466,0.095523,-9.76214,0.0589228,0.0456045,-0.0900996,0.0595466,0.095523,0.0316095,
0.648279,5.85163,14.6054,91.5737,0.705486,0.124811,-0.0556834,0.695422,0.0165881,-0.0398625,0.00834449,2.53494,-9.5248,0.381451,-0.241687,0.40699,0.144007,23.7,99.013,0.025001,0.019257,-0.0520272,0.0218482,0.0615741,-0.237391,0.0065114,-0.115781,-0.167809,0.450806,0.06146,-0.11405,-9.86288,0.0653458,-0.0511099,0.121171,0.06146,-0.11405,-0.0691376,
0.673494,5.85163,14.6054,91.5737,0.705486,0.124811,-0.0556834,0.695422,0.0165881,-0.0398625,0.00834449,2.53494,-9.5248,0.381451,-0.241687,0.40699,0.144007,23.7,99.013,0.025001,0.019257,-0.0520272,0.0218482,0.0615741,-0.237391,0.0065114,-0.115781,-0.167809,0.450806,0.06146,-0.11405,-9.86288,0.0653458,-0.0511099,0.121171,0.06146,-0.11405,-0.0691376,
0.698661,5.75856,14.6116,91.5875,0.705664,0.124269,-0.056302,0.695288,0.00652497,-0.0133423,-0.00670786,2.34332,-9.50997,0.448148,-0.241661,0.410916,0.137356,23.71,99.018,0.025001,0.0106222,-0.0347926,0.00182824,0.0573341,-0.238103,0.00974982,-0.115604,-0.161099,0.454754,-0.114535,-0.196995,-9.80202,-0.127312,-0.0366077,0.185594,-0.114535,-0.196995,-0.00826931,
0.723872,5.75856,14.6116,91.5875,0.705664,0.124269,-0.056302,0.695288,0.00652497,-0.0133423,-0.00670786,2.34332,-9.50997,0.448148,-0.241661,0.410916,0.137356,23.71,99.018,0.025001,0.0106222,-0.0347926,0.00182824,0.0573341,-0.238103,0.00974982,-0.115604,-0.161099,0.454754,-0.114535,-0.196995,-9.80202,-0.127312,-0.0366077,0.185594,-0.114535,-0.196995,-0.00826931,
0.749135,5.77544,14.6149,91.5905,0.70566,0.124391,-0.056223,0.695277,-0.00367908,0.00943264,-0.00752542,2.26223,-9.6153,0.338287,-0.230338,0.407714,0.147885,23.71,99.018,0.025001,-0.00825196,0.0161922,0.00377145,0.0588947,-0.237643,0.00873082,-0.104456,-0.170522,0.448517,-0.230151,-0.0949102,-9.88049,-0.208927,-0.142092,0.0752414,-0.230151,-0.0949102,-0.0867453,
0.774347,5.78448,14.6099,91.5892,0.705648,0.124417,-0.0561356,0.695291,0.00902805,-0.0182471,0.00229574,2.7627,-9.36045,0.211371,-0.238835,0.408902,0.144135,23.7175,99.011,0.024999,-0.00781508,0.0115392,0.01116,0.062271,-0.236983,0.00619792,-0.112699,-0.167632,0.451903,0.305306,0.0794892,-9.75682,0.29237,0.112982,-0.0514668,0.305306,0.0794892,0.0369215,
0.799692,5.78448,14.6099,91.5892,0.705648,0.124417,-0.0561356,0.695291,0.00902805,-0.0182471,0.00229574,2.7627,-9.36045,0.211371,-0.238835,0.408902,0.144135,23.7175,99.011,0.024999,-0.00781508,0.0115392,0.01116,0.062271,-0.236983,0.00619792,-0.112699,-0.167632,0.451903,0.305306,0.0794892,-9.75682,0.29237,0.112982,-0.0514668,0.305306,0.0794892,0.0369215,
0.825085,5.74303,14.6132,91.591,0.7057,0.124181,-0.0564096,0.695259,-0.00258083,0.0102234,-0.00843011,2.72916,-9.49924,0.316585,-0.234087,0.410777,0.146562,23.71,99.018,0.024999,-0.000178839,-0.00748032,0.00450684,0.0548482,-0.238946,0.00690188,-0.107521,-0.169521,0.452457,0.247052,-0.0281481,-9.88545,0.258272,-0.0259602,0.05347,0.247052,-0.0281481,-0.0917072,
0.850337,5.74303,14.6132,91.591,0.7057,0.124181,-0.0564096,0.695259,-0.00258083,0.0102234,-0.00843011,2.72916,-9.49924,0.316585,-0.234087,0.410777,0.146562,23.71,99.018,0.024999,-0.000178839,-0.00748032,0.00450684,0.0548482,-0.238946,0.00690188,-0.107521,-0.169521,0.452457,0.247052,-0.0281481,-9.88545,0.258272,-0.0259602,0.05347,0.247052,-0.0281481,-0.0917072,
0.875573,5.77337,14.6123,91.5918,0.705673,0.124362,-0.0562211,0.695269,-0.00488951,0.0164317,-0.00621962,1.4287,-9.82435,-0.0638563,-0.228485,0.405653,0.142489,23.72,99.022,0.024999,-0.00634796,0.0122095,0.00738512,0.0628324,-0.23587,0.00747322,-0.103726,-0.164973,0.446192,-1.12289,0.224927,-9.86163,-1.04204,-0.351044,-0.327117,-1.12289,0.224927,-0.0678816,
0.900891,5.77337,14.6123,91.5918,0.705673,0.124362,-0.0562211,0.695269,-0.00488951,0.0164317,-0.00621962,1.4287,-9.82435,-0.0638563,-0.228485,0.405653,0.142489,23.72,99.022,0.024999,-0.00634796,0.0122095,0.00738512,0.0628324,-0.23587,0.00747322,-0.103726,-0.164973,0.446192,-1.12289,0.224927,-9.86163,-1.04204,-0.351044,-0.327117,-1.12289,0.224927,-0.0678816,
0.92617,5.77737,14.6133,91.5929,0.705674,0.124392,-0.0562042,0.695264,-0.000316941,-0.00331627,0.0172123,1.94617,-9.69121,0.635025,-0.244485,0.411015,0.141622,23.71,99.018,0.025001,-0.00342579,0.00671767,0.00689395,0.0636978,-0.237973,0.00956135,-0.117832,-0.165695,0.455438,-0.525684,-0.420438,-9.88217,-0.524739,-0.217951,0.371587,-0.525684,-0.420438,-0.0884256,
0.951409,5.77673,14.6214,91.5968,0.70569,0.124435,-0.0562627,0.695236,-0.00612597,0.0160013,-0.00743228,3.7041,-9.13353,0.234207,-0.230241,0.418564,0.138963,23.72,99.022,0.025001,-0.0109751,0.0273658,0.00322523,0.0583439,-0.238732,0.00655335,-0.10239,-0.1617,0.459224,1.26926,0.148914,-9.77566,1.23185,0.339359,-0.0298723,1.26926,0.148914,0.0180893,
0.976639,5.77673,14.6214,91.5968,0.70569,0.124435,-0.0562627,0.695236,-0.00612597,0.0160013,-0.00743228,3.7041,-9.13353,0.234207,-0.230241,0.418564,0.138963,23.72,99.022,0.025001,-0.0109751,0.0273658,0.00322523,0.0583439,-0.238732,0.00655335,-0.10239,-0.1617,0.459224,1.26926,0.148914,-9.77566,1.23185,0.339359,-0.0298723,1.26926,0.148914,0.0180893,
1.00187,5.82391,14.6267,91.59,0.705591,0.12476,-0.0560021,0.695298,-0.0159504,0.0273242,-0.0146571,1.69554,-9.64132,0.671174,-0.240733,0.407958,0.144047,23.71,99.029,0.025,-0.00992208,0.00566423,0.00439321,0.0571683,-0.237014,0.0135971,-0.114527,-0.167799,0.451507,-0.75275,-0.482262,-9.77145,-0.777576,-0.168623,0.408226,-0.75275,-0.482262,0.0222979,
1.02709,5.82391,14.6267,91.59,0.705591,0.12476,-0.0560021,0.695298,-0.0159504,0.0273242,-0.0146571,1.69554,-9.64132,0.671174,-0.240733,0.407958,0.144047,23.71,99.029,0.025,-0.00992208,0.00566423,0.00439321,0.0571683,-0.237014,0.0135971,-0.114527,-0.167799,0.451507,-0.75275,-0.482262,-9.77145,-0.777576,-0.168623,0.408226,-0.75275,-0.482262,0.0222979,
1.05231,5.74511,14.6303,91.5785,0.705603,0.124302,-0.0564899,0.695329,-0.000394984,-0.0180286,0.00194096,2.57516,-9.34285,0.080245,-0.232136,0.416669,0.1455,23.715,99.018,0.025001,0.0023085,-0.0426564,0.000243518,0.064205,-0.237363,0.00559308,-0.104106,-0.168189,0.457761,0.113789,0.189489,-9.68906,0.101458,0.129749,-0.180789,0.113789,0.189489,0.104687,
1.07762,5.74902,14.6312,91.5716,0.705556,0.124335,-0.0564646,0.695373,0.00960759,-0.0135541,-0.0149126,-3.61985,-11.0329,-2.15322,-0.242539,0.415928,0.142774,23.71,99.018,0.024999,-0.0116401,0.00661363,0.00761495,0.0475152,-0.241815,0.00250072,-0.114545,-0.166439,0.459765,-6.48773,1.81425,-9.6996,-6.09372,-1.5603,-2.41312,-6.48773,1.81425,0.0941505,
1.10291,5.74902,14.6312,91.5716,0.705556,0.124335,-0.0564646,0.695373,0.00960759,-0.0135541,-0.0149126,-3.61985,-11.0329,-2.15322,-0.242539,0.415928,0.142774,23.71,99.018,0.024999,-0.0116401,0.00661363,0.00761495,0.0475152,-0.241815,0.00250072,-0.114545,-0.166439,0.459765,-6.48773,1.81425,-9.6996,-6.09372,-1.5603,-2.41312,-6.48773,1.81425,0.0941505,
1.12812,5.7647,14.6434,91.558,0.705443,0.124511,-0.0564308,0.695459,0.00287455,-0.0274942,-0.00577911,2.70857,-9.2837,0.912983,-0.241658,0.408991,0.147296,23.7125,99.022,0.025,0.0187964,-0.0530112,0.00771117,0.0491562,-0.235672,0.00781167,-0.114894,-0.170766,0.452777,0.333198,-0.62995,-9.68758,0.232687,0.188417,0.655351,0.333198,-0.62995,0.106166,
1.15336,5.7647,14.6434,91.558,0.705443,0.124511,-0.0564308,0.695459,0.00287455,-0.0274942,-0.00577911,2.70857,-9.2837,0.912983,-0.241658,0.408991,0.147296,23.7125,99.022,0.025,0.0187964,-0.0530112,0.00771117,0.0491562,-0.235672,0.00781167,-0.114894,-0.170766,0.452777,0.333198,-0.62995,-9.68758,0.232687,0.188417,0.655351,0.333198,-0.62995,0.106166,
1.17856,5.78301,14.6478,91.5424,0.705324,0.124658,-0.0563302,0.695562,-0.00919246,0.0077587,-0.00467719,3.30483,-9.14326,0.46094,-0.235999,0.407863,0.148697,23.7125,99.007,0.024999,-0.00613659,0.00155219,0.00524054,0.0551827,-0.239239,0.00781622,-0.109513,-0.17153,0.45027,0.900136,-0.124598,-9.6906,0.828219,0.328743,0.205889,0.900136,-0.124598,0.103144,
1.20379,5.78301,14.6478,91.5424,0.705324,0.124658,-0.0563302,0.695562,-0.00919246,0.0077587,-0.00467719,3.30483,-9.14326,0.46094,-0.235999,0.407863,0.148697,23.7125,99.007,0.024999,-0.00613659,0.00155219,0.00524054,0.0551827,-0.239239,0.00781622,-0.109513,-0.17153,0.45027,0.900136,-0.124598,-9.6906,0.828219,0.328743,0.205889,0.900136,-0.124598,0.103144,
1.229,5.83193,14.6848,91.545,0.705245,0.125179,-0.0562663,0.695553,-0.003125,0.089596,-0.0830653,-2.71654,-10.3022,-0.288489,-0.242611,0.408997,0.143941,23.7125,99.022,0.025,-0.00149473,0.0285716,-0.0363901,-0.00608565,-0.252721,-0.00995691,-0.115602,-0.167529,0.453241,-5.26691,0.0311337,-9.26588,-5.19925,-0.831796,-0.543919,-5.26691,0.0311337,0.527866,
1.25422,5.86306,14.6384,91.5263,0.705149,0.125102,-0.0557681,0.695704,0.021947,-0.0312456,-0.000471917,2.41342,-8.8014,0.1788,-0.245448,0.409063,0.142694,23.72,99.022,0.025001,-0.0298683,0.034258,0.0538727,0.125085,-0.222333,0.015188,-0.118709,-0.166537,0.453996,0.104124,0.0666876,-9.12721,-0.0616375,0.671076,-0.0736037,0.104124,0.0666876,0.666536,
1.27945,5.86306,14.6384,91.5263,0.705149,0.125102,-0.0557681,0.695704,0.021947,-0.0312456,-0.000471917,2.41342,-8.8014,0.1788,-0.245448,0.409063,0.142694,23.72,99.022,0.025001,-0.0298683,0.034258,0.0538727,0.125085,-0.222333,0.015188,-0.118709,-0.166537,0.453996,0.104124,0.0666876,-9.12721,-0.0616375,0.671076,-0.0736037,0.104124,0.0666876,0.666536,
1.30469,5.84286,14.6178,91.5251,0.705187,0.124855,-0.0557613,0.695711,0.00579916,-0.0228094,0.0191705,2.56882,-9.37576,0.29747,-0.24172,0.404026,0.145139,23.72,99.011,0.025001,-0.00562981,0.00202127,0.0223964,0.0640178,-0.237158,0.0053101,-0.116387,-0.168565,0.448075,0.122598,-0.0355284,-9.72502,0.097169,0.0976083,0.0452425,0.122598,-0.0355284,0.0687275,
1.32996,5.84286,14.6178,91.5251,0.705187,0.124855,-0.0557613,0.695711,0.00579916,-0.0228094,0.0191705,2.56882,-9.37576,0.29747,-0.24172,0.404026,0.145139,23.72,99.011,0.025001,-0.00562981,0.00202127,0.0223964,0.0640178,-0.237158,0.0053101,-0.116387,-0.168565,0.448075,0.122598,-0.0355284,-9.72502,0.097169,0.0976083,0.0452425,0.122598,-0.0355284,0.0687275,
1.35519,5.85042,14.5969,91.5173,0.705154,0.12478,-0.0555765,0.695772,-0.0172049,0.0361006,0.00953192,2.52155,-9.46423,0.437965,-0.24079,0.40397,0.139676,23.715,99.018,0.025001,-0.0165906,0.0305237,0.0175314,0.0563682,-0.239378,0.0109737,-0.116167,-0.163014,0.447899,0.071724,-0.180838,-9.80224,0.0533495,0.010073,0.187005,0.071724,-0.180838,-0.00849247,
1.38053,5.96976,14.6047,91.4834,0.704809,0.125577,-0.0548629,0.696035,-0.0995654,0.13271,0.0630117,8.04987,-8.80545,-1.02863,-0.246327,0.41505,0.144797,23.71,99.018,0.025001,-0.0542405,0.107369,-0.0160259,0.0582465,-0.234872,0.0149982,-0.117791,-0.168658,0.459988,5.41605,1.82944,-10.5221,5.5804,0.668667,-1.27397,5.41605,1.82944,-0.728328,
1.40601,5.96976,14.6047,91.4834,0.704809,0.125577,-0.0548629,0.696035,-0.0995654,0.13271,0.0630117,8.04987,-8.80545,-1.02863,-0.246327,0.41505,0.144797,23.71,99.018,0.025001,-0.0542405,0.107369,-0.0160259,0.0582465,-0.234872,0.0149982,-0.117791,-0.168658,0.459988,5.41605,1.82944,-10.5221,5.5804,0.668667,-1.27397,5.41605,1.82944,-0.728328,
1.43125,6.04213,14.6046,91.4692,0.704643,0.126029,-0.0544075,0.696157,-0.0138787,0.0284448,-0.0119233,3.3836,-9.23531,1.13497,-0.249324,0.40025,0.143689,23.72,99.022,0.024999,-0.0356672,0.0729394,0.00653071,0.0532582,-0.239842,0.00909282,-0.124323,-0.167924,0.446491,1.02833,-0.793978,-9.81529,0.914133,0.238876,0.891977,1.02833,-0.793978,-0.0215464,
1.45648,6.04213,14.6046,91.4692,0.704643,0.126029,-0.0544075,0.696157,-0.0138787,0.0284448,-0.0119233,3.3836,-9.23531,1.13497,-0.249324,0.40025,0.143689,23.72,99.022,0.024999,-0.0356672,0.0729394,0.00653071,0.0532582,-0.239842,0.00909282,-0.124323,-0.167924,0.446491,1.02833,-0.793978,-9.81529,0.914133,0.238876,0.891977,1.02833,-0.793978,-0.0215464,
1.48172,6.13116,14.6324,91.4281,0.704265,0.126762,-0.0539942,0.696439,-0.00924205,-0.00909495,-0.0110581,2.13633,-9.59161,0.121304,-0.252104,0.405277,0.143498,23.72,99.011,0.024999,-0.023744,0.0126806,-0.00121412,0.0607554,-0.238015,0.00328058,-0.125268,-0.167894,0.452236,-0.366518,0.0790937,-9.82024,-0.337736,-0.118457,-0.114871,-0.366518,0.0790937,-0.0264921,
1.50699,6.13116,14.6324,91.4281,0.704265,0.126762,-0.0539942,0.696439,-0.00924205,-0.00909495,-0.0110581,2.13633,-9.59161,0.121304,-0.252104,0.405277,0.143498,23.72,99.011,0.024999,-0.023744,0.0126806,-0.00121412,0.0607554,-0.238015,0.00328058,-0.125268,-0.167894,0.452236,-0.366518,0.0790937,-9.82024,-0.337736,-0.118457,-0.114871,-0.366518,0.0790937,-0.0264921,
1.53224,6.12396,14.6534,91.4086,0.704131,0.126853,-0.054147,0.696546,-0.00357449,-0.0015905,-0.0048555,2.64422,-9.44515,-0.117433,-0.260637,0.402521,0.143092,23.7125,99.011,0.024999,-0.00479936,-0.0119555,-0.00136618,0.0638116,-0.236563,-0.00016041,-0.134075,-0.168207,0.451841,0.132057,0.365763,-9.8013,0.166693,0.0271774,-0.350361,0.132057,0.365763,-0.00755024,
1.55746,6.09485,14.659,91.4106,0.704169,0.126706,-0.054361,0.696518,0.0143833,-0.0383424,-0.00503115,2.61324,-9.45021,0.1475,-0.258751,0.401502,0.146506,23.72,99.022,0.025001,0.00603892,-0.0253775,0.0033751,0.0655377,-0.236203,0.000339371,-0.13222,-0.171352,0.450307,0.126648,0.0991881,-9.80466,0.134784,0.0218685,-0.085745,0.126648,0.0991881,-0.0109167,
1.5827,6.09485,14.659,91.4106,0.704169,0.126706,-0.054361,0.696518,0.0143833,-0.0383424,-0.00503115,2.61324,-9.45021,0.1475,-0.258751,0.401502,0.146506,23.72,99.022,0.025001,0.00603892,-0.0253775,0.0033751,0.0655377,-0.236203,0.000339371,-0.13222,-0.171352,0.450307,0.126648,0.0991881,-9.80466,0.134784,0.0218685,-0.085745,0.126648,0.0991881,-0.0109167,
1.60795,6.02378,14.6604,91.4279,0.704351,0.12627,-0.0548213,0.696377,0.0130121,-0.0200924,0.00150137,2.5133,-9.46084,0.146825,-0.252088,0.406289,0.146797,23.72,99.011,0.025001,0.0145312,-0.0233155,0.00889373,0.0638733,-0.236607,0.00404517,-0.124763,-0.170913,0.453201,0.0273008,0.0923577,-9.78961,0.0345952,0.011107,-0.0892873,0.0273008,0.0923577,0.00413895,
1.63315,6.02378,14.6604,91.4279,0.704351,0.12627,-0.0548213,0.696377,0.0130121,-0.0200924,0.00150137,2.5133,-9.46084,0.146825,-0.252088,0.406289,0.146797,23.72,99.011,0.025001,0.0145312,-0.0233155,0.00889373,0.0638733,-0.236607,0.00404517,-0.124763,-0.170913,0.453201,0.0273008,0.0923577,-9.78961,0.0345952,0.011107,-0.0892873,0.0273008,0.0923577,0.00413895,
1.65831,6.01153,14.66,91.4446,0.704466,0.126184,-0.0549114,0.696269,0.00411345,-0.002734,-0.00330986,2.30397,-9.49746,0.528842,-0.245529,0.401173,0.148284,23.72,99.022,0.025,0.00033,0.0100299,0.00711767,0.0582405,-0.237842,0.0128349,-0.119646,-0.171826,0.446512,-0.146025,-0.306218,-9.78134,-0.17466,-0.0255629,0.289978,-0.146025,-0.306218,0.0124083,
1.68351,6.03197,14.6713,91.4284,0.704332,0.126385,-0.0548395,0.696373,-0.0117095,0.00527679,-0.00278177,2.8612,-9.35066,0.715114,-0.24077,0.405006,0.146284,23.72,99.033,0.025001,-0.0197338,0.0178587,0.00176698,0.0634282,-0.23685,0.0163249,-0.114143,-0.169266,0.449132,0.444298,-0.437539,-9.78488,0.380708,0.120813,0.478942,0.444298,-0.437539,0.0088644,
1.70875,6.03197,14.6713,91.4284,0.704332,0.126385,-0.0548395,0.696373,-0.0117095,0.00527679,-0.00278177,2.8612,-9.35066,0.715114,-0.24077,0.405006,0.146284,23.72,99.033,0.025001,-0.0197338,0.0178587,0.00176698,0.0634282,-0.23685,0.0163249,-0.114143,-0.169266,0.449132,0.444298,-0.437539,-9.78488,0.380708,0.120813,0.478942,0.444298,-0.437539,0.0088644,
1.7339,6.05495,14.6786,91.4068,0.704168,0.12658,-0.0547213,0.696513,-0.0221054,0.0141932,-0.00430691,2.67392,-9.4413,0.448496,-0.245476,0.40613,0.148238,23.72,99.022,0.025,-0.0309276,0.02492,0.000448018,0.0616368,-0.23738,0.0144815,-0.118067,-0.171575,0.451438,0.213967,-0.195084,-9.81862,0.192226,0.0299501,0.215896,0.213967,-0.195084,-0.0248728,
1.75904,6.05495,14.6786,91.4068,0.704168,0.12658,-0.0547213,0.696513,-0.0221054,0.0141932,-0.00430691,2.67392,-9.4413,0.448496,-0.245476,0.40613,0.148238,23.72,99.022,0.025,-0.0309276,0.02492,0.000448018,0.0616368,-0.23738,0.0144815,-0.118067,-0.171575,0.451438,0.213967,-0.195084,-9.81862,0.192226,0.0299501,0.215896,0.213967,-0.195084,-0.0248728,
1.7842,6.03391,14.6859,91.3586,0.70389,0.126518,-0.0548417,0.696796,-0.0151738,0.00269739,-0.0016818,2.55856,-9.50686,0.0193867,-0.227561,0.402714,0.151388,23.72,99.022,0.025,-0.0221236,-0.0120802,0.00594819,0.0644611,-0.236458,0.00181669,-0.101397,-0.172508,0.443667,0.0433352,0.211758,-9.84278,0.0756506,-0.0357399,-0.20524,0.0433352,0.211758,-0.0490341,
1.80936,6.03391,14.6859,91.3586,0.70389,0.126518,-0.0548417,0.696796,-0.0151738,0.00269739,-0.0016818,2.55856,-9.50686,0.0193867,-0.227561,0.402714,0.151388,23.72,99.022,0.025,-0.0221236,-0.0120802,0.00594819,0.0644611,-0.236458,0.00181669,-0.101397,-0.172508,0.443667,0.0433352,0.211758,-9.84278,0.0756506,-0.0357399,-0.20524,0.0433352,0.211758,-0.0490341,
1.83457,6.02705,14.6721,91.3334,0.703759,0.126405,-0.0547697,0.696954,-0.000211549,-0.0131729,0.00888563,2.54637,-9.48302,-0.0181488,-0.23794,0.405893,0.140907,23.72,99,0.025,-0.00809631,-0.00867421,0.0186502,0.0689661,-0.23519,-0.00226337,-0.11174,-0.162947,0.449647,0.0367512,0.244016,-9.81586,0.0657424,-0.0111987,-0.238612,0.0367512,0.244016,-0.0221109,
1.85976,6.00144,14.6327,91.3452,0.703903,0.126006,-0.0546935,0.696887,0.00596851,0.00586004,0.014056,2.31182,-9.50198,0.193693,-0.247437,0.401177,0.140471,23.72,99.011,0.024999,0.0123791,-0.0151218,0.0309433,0.0653331,-0.236284,0.000824391,-0.122497,-0.163554,0.447376,-0.166245,0.0121108,-9.77966,-0.162304,-0.0285061,-0.0287647,-0.166245,0.0121108,0.014081,
1.88497,6.00144,14.6327,91.3452,0.703903,0.126006,-0.0546935,0.696887,0.00596851,0.00586004,0.014056,2.31182,-9.50198,0.193693,-0.247437,0.401177,0.140471,23.72,99.011,0.024999,0.0123791,-0.0151218,0.0309433,0.0653331,-0.236284,0.000824391,-0.122497,-0.163554,0.447376,-0.166245,0.0121108,-9.77966,-0.162304,-0.0285061,-0.0287647,-0.166245,0.0121108,0.014081,
1.91012,5.98849,14.6073,91.361,0.704042,0.125767,-0.0546312,0.696795,0.0196635,-0.017995,0.0180612,2.1276,-9.55019,0.0126363,-0.251174,0.404265,0.143557,23.72,99.022,0.025001,0.0159272,-0.00897688,0.0342524,0.0666307,-0.235439,0.00252247,-0.125242,-0.167096,0.451133,-0.36949,0.17661,-9.77575,-0.342304,-0.0756835,-0.212457,-0.36949,0.17661,0.017993,
1.9353,5.98849,14.6073,91.361,0.704042,0.125767,-0.0546312,0.696795,0.0196635,-0.017995,0.0180612,2.1276,-9.55019,0.0126363,-0.251174,0.404265,0.143557,23.72,99.022,0.025001,0.0159272,-0.00897688,0.0342524,0.0666307,-0.235439,0.00252247,-0.125242,-0.167096,0.451133,-0.36949,0.17661,-9.77575,-0.342304,-0.0756835,-0.212457,-0.36949,0.17661,0.017993,
1.96048,5.96508,14.5543,91.3893,0.704298,0.125292,-0.0544748,0.696634,0.011048,-0.0147566,0.0154923,2.56423,-9.56779,0.563321,-0.238941,0.399991,0.144222,23.72,99.022,0.025,0.0211569,-0.0290017,0.0361743,0.0606031,-0.237513,0.0108524,-0.11496,-0.166727,0.443702,0.108867,-0.321615,-9.91565,0.103085,-0.0911194,0.333495,0.108867,-0.321615,-0.121901,
1.98567,5.96508,14.5543,91.3893,0.704298,0.125292,-0.0544748,0.696634,0.011048,-0.0147566,0.0154923,2.56423,-9.56779,0.563321,-0.238941,0.399991,0.144222,23.72,99.022,0.025,0.0211569,-0.0290017,0.0361743,0.0606031,-0.237513,0.0108524,-0.11496,-0.166727,0.443702,0.108867,-0.321615,-9.91565,0.103085,-0.0911194,0.333495,0.108867,-0.321615,-0.121901,
2.01081,5.94632,14.5076,91.4074,0.70448,0.124888,-0.0543176,0.696535,0.00386233,0.00918799,0.0136942,2.08486,-9.66708,0.213758,-0.240801,0.40204,0.147415,23.72,99.022,0.025001,0.000195518,0.012729,0.0283225,0.0563545,-0.238927,0.00961202,-0.116339,-0.170213,0.445921,-0.404173,-0.0182316,-9.88338,-0.368555,-0.188479,-0.0191141,-0.404173,-0.0182316,-0.089633,
2.03598,5.98392,14.4815,91.4111,0.70449,0.12496,-0.0539303,0.696541,-0.00202596,0.00903971,0.010826,2.23721,-9.48422,0.23418,-0.248325,0.407137,0.138163,23.72,99.011,0.025,-0.0133343,0.035891,0.0171289,0.0566756,-0.239331,0.00979043,-0.123301,-0.161883,0.452886,-0.205094,-0.0220502,-9.74514,-0.211876,-0.00450698,0.000660294,-0.205094,-0.0220502,0.048605,
2.06126,5.98392,14.4815,91.4111,0.70449,0.12496,-0.0539303,0.696541,-0.00202596,0.00903971,0.010826,2.23721,-9.48422,0.23418,-0.248325,0.407137,0.138163,23.72,99.011,0.025,-0.0133343,0.035891,0.0171289,0.0566756,-0.239331,0.00979043,-0.123301,-0.161883,0.452886,-0.205094,-0.0220502,-9.74514,-0.211876,-0.00450698,0.000660294,-0.205094,-0.0220502,0.048605,
2.08659,5.98656,14.473,91.4114,0.704499,0.124925,-0.0538618,0.696544,-0.00702573,0.0174302,0.00633818,2.46641,-9.48887,0.429682,-0.239858,0.402018,0.147464,23.7125,99.007,0.024999,-0.00405252,0.00560162,0.0164211,0.0574477,-0.238622,0.00936664,-0.115579,-0.170304,0.445571,0.0350708,-0.193221,-9.81163,0.0187288,-0.00880465,0.196102,0.0350708,-0.193221,-0.0178804,
2.1118,5.98656,14.473,91.4114,0.704499,0.124925,-0.0538618,0.696544,-0.00702573,0.0174302,0.00633818,2.46641,-9.48887,0.429682,-0.239858,0.402018,0.147464,23.7125,99.007,0.024999,-0.00405252,0.00560162,0.0164211,0.0574477,-0.238622,0.00936664,-0.115579,-0.170304,0.445571,0.0350708,-0.193221,-9.81163,0.0187288,-0.00880465,0.196102,0.0350708,-0.193221,-0.0178804,
2.13702,5.98307,14.4578,91.4132,0.70453,0.124812,-0.0537905,0.696539,-0.00108198,0.00111447,0.0101072,2.7969,-9.46587,0.493943,-0.253067,0.403351,0.147881,23.74,99.026,0.025,-0.00462586,0.00943446,0.014499,0.0607725,-0.237963,0.00485602,-0.128052,-0.172069,0.45011,0.367957,-0.223207,-9.87341,0.351724,0.0148343,0.260058,0.367957,-0.223207,-0.0796642,
2.16227,5.98368,14.449,91.4213,0.704588,0.124759,-0.0537404,0.696493,0.00675288,-0.00817233,0.00733593,2.5622,-9.43011,0.235902,-0.240813,0.40105,0.147425,23.74,99.015,0.024999,-0.00100441,0.00868033,0.0148381,0.0624921,-0.23757,0.00521541,-0.11694,-0.170446,0.444792,0.126949,0.0113686,-9.77401,0.118487,0.0509423,0.000663723,0.126949,0.0113686,0.0197353,
2.18755,5.98368,14.449,91.4213,0.704588,0.124759,-0.0537404,0.696493,0.00675288,-0.00817233,0.00733593,2.5622,-9.43011,0.235902,-0.240813,0.40105,0.147425,23.74,99.015,0.024999,-0.00100441,0.00868033,0.0148381,0.0624921,-0.23757,0.00521541,-0.11694,-0.170446,0.444792,0.126949,0.0113686,-9.77401,0.118487,0.0509423,0.000663723,0.126949,0.0113686,0.0197353,
2.21273,5.97374,14.4332,91.4365,0.704709,0.124596,-0.0537191,0.696402,0.00844693,-0.00416446,0.00667976,2.98006,-9.47292,0.396152,-0.251174,0.404274,0.144661,23.72,99.022,0.025,0.00496954,0.00605489,0.0180547,0.0618308,-0.237973,0.00423368,-0.126533,-0.168836,0.450485,0.536795,-0.103244,-9.92346,0.538957,0.00874124,0.15838,0.536795,-0.103244,-0.129718,
2.23798,5.97374,14.4332,91.4365,0.704709,0.124596,-0.0537191,0.696402,0.00844693,-0.00416446,0.00667976,2.98006,-9.47292,0.396152,-0.251174,0.404274,0.144661,23.72,99.022,0.025,0.00496954,0.00605489,0.0180547,0.0618308,-0.237973,0.00423368,-0.126533,-0.168836,0.450485,0.536795,-0.103244,-9.92346,0.538957,0.00874124,0.15838,0.536795,-0.103244,-0.129718,
2.26319,5.95196,14.4236,91.4503,0.704827,0.124399,-0.0538071,0.696311,0.0136641,-0.0150927,0.00403017,3.01512,-9.5419,0.485671,-0.240783,0.40499,0.142978,23.73,99.011,0.025,0.016334,-0.0178784,0.0184317,0.0611577,-0.237801,0.00570756,-0.116646,-0.166174,0.448571,0.563385,-0.186591,-10.0011,0.575604,-0.0598904,0.245599,0.563385,-0.186591,-0.207381,
2.28843,5.95196,14.4236,91.4503,0.704827,0.124399,-0.0538071,0.696311,0.0136641,-0.0150927,0.00403017,3.01512,-9.5419,0.485671,-0.240783,0.40499,0.142978,23.73,99.011,0.025,0.016334,-0.0178784,0.0184317,0.0611577,-0.237801,0.00570756,-0.116646,-0.166174,0.448571,0.563385,-0.186591,-10.0011,0.575604,-0.0598904,0.245599,0.563385,-0.186591,-0.207381,
2.31358,5.94296,14.4042,91.4673,0.704961,0.124219,-0.0537591,0.696211,0.00518626,-0.000893621,0.00725835,2.18598,-9.60872,0.623126,-0.241781,0.40006,0.142977,23.74,99.026,0.025,0.00596464,-0.00209611,0.0193447,0.0586932,-0.237865,0.0100025,-0.119017,-0.166391,0.443956,-0.235689,-0.403451,-9.86286,-0.25032,-0.125951,0.380229,-0.235689,-0.403451,-0.0691118,
2.33883,5.93358,14.3912,91.4785,0.705054,0.124078,-0.0537471,0.696143,0.00718097,-0.011886,0.00445617,2.68067,-9.57947,0.427162,-0.25119,0.403278,0.143569,23.72,99.022,0.025,0.00418478,-0.00968015,0.0143613,0.0580742,-0.238741,0.00893488,-0.127347,-0.167991,0.449337,0.231164,-0.156788,-9.95273,0.246525,-0.0961992,0.182388,0.231164,-0.156788,-0.158979,
2.36405,5.93358,14.3912,91.4785,0.705054,0.124078,-0.0537471,0.696143,0.00718097,-0.011886,0.00445617,2.68067,-9.57947,0.427162,-0.25119,0.403278,0.143569,23.72,99.022,0.025,0.00418478,-0.00968015,0.0143613,0.0580742,-0.238741,0.00893488,-0.127347,-0.167991,0.449337,0.231164,-0.156788,-9.95273,0.246525,-0.0961992,0.182388,0.231164,-0.156788,-0.158979,
2.38939,5.91647,14.3884,91.4781,0.705073,0.123956,-0.0538332,0.696139,0.000750343,-0.0093202,0.000249555,2.86032,-9.41246,0.521328,-0.252053,0.412191,0.137925,23.725,99.022,0.024999,-0.000815731,-0.0138138,0.0107417,0.0603487,-0.23757,0.00994432,-0.12657,-0.162423,0.458317,0.455508,-0.232649,-9.83799,0.426636,0.07093,0.276625,0.455508,-0.232649,-0.0442457,
2.4146,5.91647,14.3884,91.4781,0.705073,0.123956,-0.0538332,0.696139,0.000750343,-0.0093202,0.000249555,2.86032,-9.41246,0.521328,-0.252053,0.412191,0.137925,23.725,99.022,0.024999,-0.000815731,-0.0138138,0.0107417,0.0603487,-0.23757,0.00994432,-0.12657,-0.162423,0.458317,0.455508,-0.232649,-9.83799,0.426636,0.07093,0.276625,0.455508,-0.232649,-0.0442457,
2.43981,5.91119,14.3882,91.478,0.705078,0.123922,-0.0538637,0.696137,-0.000285055,1.47456e-05,-0.00377517,2.28693,-9.53949,0.526274,-0.243597,0.40609,0.148339,23.725,99.026,0.025001,-0.00196339,-0.00161293,0.00789193,0.0579636,-0.238148,0.0076429,-0.118958,-0.171929,0.450047,-0.12817,-0.294812,-9.81864,-0.146715,-0.0560892,0.281585,-0.12817,-0.294812,-0.0248899,
2.46523,5.9075,14.3925,91.481,0.705095,0.123924,-0.0539166,0.696115,0.00556077,-0.00879642,-0.00729007,2.45035,-9.69683,0.207257,-0.250234,0.405228,0.141395,23.725,99.022,0.024999,0.00132279,-0.00668328,0.00415698,0.0582969,-0.237936,0.00475581,-0.126215,-0.165691,0.451038,-0.041627,0.0393487,-10.0036,0.0159823,-0.213619,-0.0379159,-0.041627,0.0393487,-0.209869,
2.49046,5.9075,14.3925,91.481,0.705095,0.123924,-0.0539166,0.696115,0.00556077,-0.00879642,-0.00729007,2.45035,-9.69683,0.207257,-0.250234,0.405228,0.141395,23.725,99.022,0.024999,0.00132279,-0.00668328,0.00415698,0.0582969,-0.237936,0.00475581,-0.126215,-0.165691,0.451038,-0.041627,0.0393487,-10.0036,0.0159823,-0.213619,-0.0379159,-0.041627,0.0393487,-0.209869,
2.51668,5.89735,14.3885,91.4777,0.705091,0.123839,-0.0539497,0.696132,0.0290835,-0.0471264,-0.0190555,-4.58093,-11.674,-0.976948,-0.236952,0.409868,0.145332,23.72,99.022,0.024999,-0.00367977,-0.0158319,0.0169889,0.0538076,-0.242468,0.00931479,-0.11194,-0.168245,0.452131,-7.42344,0.51767,-10.1413,-7.01464,-2.19061,-1.22158,-7.42344,0.51767,-0.347571,
2.54195,5.89735,14.3885,91.4777,0.705091,0.123839,-0.0539497,0.696132,0.0290835,-0.0471264,-0.0190555,-4.58093,-11.674,-0.976948,-0.236952,0.409868,0.145332,23.72,99.022,0.024999,-0.00367977,-0.0158319,0.0169889,0.0538076,-0.242468,0.00931479,-0.11194,-0.168245,0.452131,-7.42344,0.51767,-10.1413,-7.01464,-2.19061,-1.22158,-7.42344,0.51767,-0.347571,
2.56715,5.90726,14.4193,91.4772,0.705044,0.124085,-0.0540805,0.696126,-0.0213419,-0.0164417,0.0562321,4.88585,-10.471,1.18321,-0.24267,0.405063,0.146192,23.73,99.022,0.025001,-0.00612681,0.0117326,-0.0228261,0.0820627,-0.239925,0.00901733,-0.118298,-0.169661,0.448952,2.20048,-0.690081,-11.384,2.44706,-0.98893,0.938693,2.20048,-0.690081,-1.59025,
2.59237,5.90726,14.4193,91.4772,0.705044,0.124085,-0.0540805,0.696126,-0.0213419,-0.0164417,0.0562321,4.88585,-10.471,1.18321,-0.24267,0.405063,0.146192,23.73,99.022,0.025001,-0.00612681,0.0117326,-0.0228261,0.0820627,-0.239925,0.00901733,-0.118298,-0.169661,0.448952,2.20048,-0.690081,-11.384,2.44706,-0.98893,0.938693,2.20048,-0.690081,-1.59025,
2.61761,5.81094,14.4403,91.491,0.705208,0.123611,-0.0548113,0.695986,-0.0259904,0.0489436,0.00647354,2.7005,-9.41299,0.388459,-0.249208,0.412162,0.144686,23.72,99.011,0.025,-0.000768545,-0.0106406,-0.0238262,0.0625344,-0.237191,0.0139691,-0.123081,-0.16869,0.457505,0.279294,-0.115727,-9.79574,0.258233,0.0681418,0.141685,0.279294,-0.115727,-0.0019989,
2.64284,5.86038,14.4696,91.4917,0.705127,0.124091,-0.0546948,0.695992,0.000710693,0.0014489,-0.0117155,2.63434,-9.31551,0.0356416,-0.237945,0.404949,0.147535,23.73,99.015,0.025001,-0.00759049,0.0183963,-0.0117065,0.0626257,-0.236715,0.00880947,-0.113392,-0.170496,0.447707,0.201409,0.228631,-9.6761,0.187208,0.16437,-0.211222,0.201409,0.228631,0.117649,
2.66804,5.86038,14.4696,91.4917,0.705127,0.124091,-0.0546948,0.695992,0.000710693,0.0014489,-0.0117155,2.63434,-9.31551,0.0356416,-0.237945,0.404949,0.147535,23.73,99.015,0.025001,-0.00759049,0.0183963,-0.0117065,0.0626257,-0.236715,0.00880947,-0.113392,-0.170496,0.447707,0.201409,0.228631,-9.6761,0.187208,0.16437,-0.211222,0.201409,0.228631,0.117649,
2.69325,5.82088,14.497,91.4916,0.705139,0.124012,-0.0551049,0.695962,0.00736895,-0.0231208,-0.0121485,2.26586,-9.63487,-0.0881514,-0.245528,0.404112,0.140544,23.72,99.022,0.025001,0.00470637,-0.0273697,-0.00350733,0.0616079,-0.237401,0.00485127,-0.121475,-0.164182,0.449033,-0.250029,0.315182,-9.88993,-0.185794,-0.156161,-0.334963,-0.250029,0.315182,-0.0961866,
2.71848,5.82088,14.497,91.4916,0.705139,0.124012,-0.0551049,0.695962,0.00736895,-0.0231208,-0.0121485,2.26586,-9.63487,-0.0881514,-0.245528,0.404112,0.140544,23.72,99.022,0.025001,0.00470637,-0.0273697,-0.00350733,0.0616079,-0.237401,0.00485127,-0.121475,-0.164182,0.449033,-0.250029,0.315182,-9.88993,-0.185794,-0.156161,-0.334963,-0.250029,0.315182,-0.0961866,
2.74378,5.8239,14.5101,91.4907,0.705116,0.12411,-0.0551674,0.695963,-0.00567994,0.0147861,-0.00684245,2.72555,-9.49124,-0.0424729,-0.250117,0.415173,0.146816,23.74,99.026,0.024999,-0.00496194,0.00548949,-0.00486969,0.0660282,-0.236325,0.00778014,-0.122403,-0.170869,0.460764,0.230954,0.314426,-9.86721,0.271728,-0.0130881,-0.289126,0.230954,0.314426,-0.0734663,
2.76899,5.80636,14.532,91.4958,0.705143,0.124131,-0.055416,0.695913,0.0100379,-0.0171248,-0.00801654,2.16172,-9.53395,0.416861,-0.248363,0.40322,0.14482,23.74,99.015,0.025,-0.00287887,0.0023051,-8.33e-06,0.0632425,-0.23623,0.00655252,-0.123794,-0.168685,0.448847,-0.283091,-0.197493,-9.77874,-0.295734,-0.056755,0.16938,-0.283091,-0.197493,0.0150051,
2.79421,5.80636,14.532,91.4958,0.705143,0.124131,-0.055416,0.695913,0.0100379,-0.0171248,-0.00801654,2.16172,-9.53395,0.416861,-0.248363,0.40322,0.14482,23.74,99.015,0.025,-0.00287887,0.0023051,-8.33e-06,0.0632425,-0.23623,0.00655252,-0.123794,-0.168685,0.448847,-0.283091,-0.197493,-9.77874,-0.295734,-0.056755,0.16938,-0.283091,-0.197493,0.0150051,
2.81947,5.78415,14.5442,91.499,0.705173,0.124066,-0.0556307,0.695877,0.00896363,-0.0185545,-0.00973098,1.69246,-9.74933,-0.166991,-0.242671,0.405072,0.147296,23.74,99.015,0.024999,0.00150169,-0.00751045,0.00293436,0.0604489,-0.237597,0.00518336,-0.117581,-0.17056,0.449168,-0.846579,0.338377,-9.85447,-0.767019,-0.272678,-0.414982,-0.846579,0.338377,-0.0607214,
2.84467,5.78415,14.5442,91.499,0.705173,0.124066,-0.0556307,0.695877,0.00896363,-0.0185545,-0.00973098,1.69246,-9.74933,-0.166991,-0.242671,0.405072,0.147296,23.74,99.015,0.024999,0.00150169,-0.00751045,0.00293436,0.0604489,-0.237597,0.00518336,-0.117581,-0.17056,0.449168,-0.846579,0.338377,-9.85447,-0.767019,-0.272678,-0.414982,-0.846579,0.338377,-0.0607214,
2.86988,5.77281,14.5662,91.5052,0.705199,0.124125,-0.0558433,0.695823,-0.00079063,0.00279555,-0.00884892,2.25842,-9.56617,-0.218488,-0.240829,0.401054,0.146328,23.74,99.026,0.025,0.00279656,-0.00755156,-0.00504087,0.060896,-0.23759,0.00838796,-0.116776,-0.169417,0.444877,-0.263919,0.445413,-9.81793,-0.204696,-0.0904931,-0.467485,-0.263919,0.445413,-0.024188,
2.8951,5.77281,14.5662,91.5052,0.705199,0.124125,-0.0558433,0.695823,-0.00079063,0.00279555,-0.00884892,2.25842,-9.56617,-0.218488,-0.240829,0.401054,0.146328,23.74,99.026,0.025,0.00279656,-0.00755156,-0.00504087,0.060896,-0.23759,0.00838796,-0.116776,-0.169417,0.444877,-0.263919,0.445413,-9.81793,-0.204696,-0.0904931,-0.467485,-0.263919,0.445413,-0.024188,
2.92039,5.77784,14.5768,91.5085,0.705201,0.124217,-0.0558821,0.695801,-0.00369069,0.0155817,-0.00416682,2.51136,-9.50638,0.326047,-0.253107,0.402323,0.140178,23.74,99.004,0.025,-0.00137546,0.00749201,-0.00239804,0.0612436,-0.237905,0.0086828,-0.12876,-0.164518,0.449368,0.0440815,-0.0716068,-9.83755,0.0464934,-0.0311658,0.0765278,0.0440815,-0.0716068,-0.0438032,
2.94569,5.79211,14.5981,91.5148,0.705201,0.12443,-0.0559351,0.695759,0.00136548,-0.000575824,-0.00328677,2.6429,-9.15545,0.383751,-0.238002,0.399997,0.147584,23.75,99.015,0.024999,-0.00867699,0.0247155,-0.00250545,0.0605211,-0.237396,0.00751118,-0.113901,-0.170472,0.443159,0.26134,-0.115803,-9.53272,0.174515,0.318815,0.133205,0.26134,-0.115803,0.261023,
2.97089,5.79211,14.5981,91.5148,0.705201,0.12443,-0.0559351,0.695759,0.00136548,-0.000575824,-0.00328677,2.6429,-9.15545,0.383751,-0.238002,0.399997,0.147584,23.75,99.015,0.024999,-0.00867699,0.0247155,-0.00250545,0.0605211,-0.237396,0.00751118,-0.113901,-0.170472,0.443159,0.26134,-0.115803,-9.53272,0.174515,0.318815,0.133205,0.26134,-0.115803,0.261023,
2.9962,5.78148,14.6214,91.5225,0.705233,0.1245,-0.0561533,0.695696,-0.00692424,0.0232582,-0.00700567,2.64342,-9.38677,0.24683,-0.254067,0.39942,0.147876,23.74,99.004,0.025001,-0.000171648,0.00179052,-0.00274986,0.0607795,-0.237938,0.00599772,-0.129337,-0.172341,0.446681,0.186256,0.0215278,-9.7532,0.171171,0.0864545,-0.00495462,0.186256,0.0215278,0.0405436,
3.02149,5.78148,14.6214,91.5225,0.705233,0.1245,-0.0561533,0.695696,-0.00692424,0.0232582,-0.00700567,2.64342,-9.38677,0.24683,-0.254067,0.39942,0.147876,23.74,99.004,0.025001,-0.000171648,0.00179052,-0.00274986,0.0607795,-0.237938,0.00599772,-0.129337,-0.172341,0.446681,0.186256,0.0215278,-9.7532,0.171171,0.0864545,-0.00495462,0.186256,0.0215278,0.0405436,
3.04672,5.783,14.6096,91.5189,0.705223,0.124441,-0.0560666,0.695724,-0.0318011,-0.00457451,0.0631611,8.19577,-8.44178,2.12965,-0.244641,0.397204,0.149479,23.73,99.019,0.025,-0.00731073,0.00469126,0.0200996,0.0971709,-0.229651,0.0175381,-0.120761,-0.173004,0.442099,5.9505,-1.31224,-10.2878,5.72547,1.03197,1.87845,5.9505,-1.31224,-0.494076,
3.07191,5.727,14.6212,91.5483,0.70545,0.124151,-0.0565108,0.69551,0.0310715,-0.0333852,0.00192009,2.17961,-9.94761,0.420011,-0.239877,0.401049,0.149684,23.74,99.026,0.025,0.0181671,-0.0407509,0.0462694,0.0887817,-0.230651,0.0141382,-0.115259,-0.17283,0.444558,-0.386884,-0.19063,-10.1831,-0.292602,-0.474491,0.163953,-0.386884,-0.19063,-0.389383,
3.09711,5.727,14.6212,91.5483,0.70545,0.124151,-0.0565108,0.69551,0.0310715,-0.0333852,0.00192009,2.17961,-9.94761,0.420011,-0.239877,0.401049,0.149684,23.74,99.026,0.025,0.0181671,-0.0407509,0.0462694,0.0887817,-0.230651,0.0141382,-0.115259,-0.17283,0.444558,-0.386884,-0.19063,-10.1831,-0.292602,-0.474491,0.163953,-0.386884,-0.19063,-0.389383,
3.12247,5.75228,14.6391,91.5679,0.705522,0.124404,-0.0564899,0.695393,-0.00636756,0.0258657,0.00600334,2.20275,-9.625,-0.0167015,-0.239816,0.406025,0.152945,23.74,99.015,0.025,-0.0098244,0.0411613,0.0175195,0.062793,-0.237892,0.0104503,-0.113418,-0.176252,0.449256,-0.326803,0.248555,-9.86532,-0.272411,-0.152735,-0.275983,-0.326803,0.248555,-0.0715694,
3.14773,5.75228,14.6391,91.5679,0.705522,0.124404,-0.0564899,0.695393,-0.00636756,0.0258657,0.00600334,2.20275,-9.625,-0.0167015,-0.239816,0.406025,0.152945,23.74,99.015,0.025,-0.0098244,0.0411613,0.0175195,0.062793,-0.237892,0.0104503,-0.113418,-0.176252,0.449256,-0.326803,0.248555,-9.86532,-0.272411,-0.152735,-0.275983,-0.326803,0.248555,-0.0715694,
3.17293,5.74125,14.6396,91.5866,0.705646,0.12433,-0.0565806,0.695273,0.00934643,-0.0162599,0.00172412,2.52836,-9.50065,0.583199,-0.253008,0.410293,0.146719,23.74,99.026,0.024999,0.00790553,-0.0132342,0.0110797,0.0622692,-0.23663,0.00819568,-0.125642,-0.171452,0.456835,0.0737302,-0.314129,-9.84332,0.0531041,-0.0284942,0.320841,0.0737302,-0.314129,-0.0495749,
3.19814,5.74125,14.6396,91.5866,0.705646,0.12433,-0.0565806,0.695273,0.00934643,-0.0162599,0.00172412,2.52836,-9.50065,0.583199,-0.253008,0.410293,0.146719,23.74,99.026,0.024999,0.00790553,-0.0132342,0.0110797,0.0622692,-0.23663,0.00819568,-0.125642,-0.171452,0.456835,0.0737302,-0.314129,-9.84332,0.0531041,-0.0284942,0.320841,0.0737302,-0.314129,-0.0495749,
3.22336,5.72265,14.6369,91.5891,0.705684,0.124198,-0.0566791,0.695249,0.012129,-0.0299703,0.00218157,2.37112,-9.46699,0.0969346,-0.244567,0.405109,0.144995,23.74,99.026,0.025001,0.00391845,-0.0150028,0.0114644,0.0601072,-0.237675,0.00655699,-0.119071,-0.168888,0.449721,-0.113853,0.155055,-9.758,-0.103683,0.00527077,-0.165845,-0.113853,0.155055,0.0357475,
3.24857,5.72904,14.6364,91.5994,0.705741,0.124229,-0.0566484,0.695189,-0.00642809,0.0223033,0.002231,2.55836,-9.46861,0.188497,-0.244622,0.40112,0.140623,23.74,99.015,0.025,0.00648378,-0.00374731,0.00677308,0.0579828,-0.238974,0.0070494,-0.120528,-0.164618,0.445966,0.074396,0.0837044,-9.80932,0.0836425,0.00362657,-0.0759906,0.074396,0.0837044,-0.0155754,
3.27376,5.72904,14.6364,91.5994,0.705741,0.124229,-0.0566484,0.695189,-0.00642809,0.0223033,0.002231,2.55836,-9.46861,0.188497,-0.244622,0.40112,0.140623,23.74,99.015,0.025,0.00648378,-0.00374731,0.00677308,0.0579828,-0.238974,0.0070494,-0.120528,-0.164618,0.445966,0.074396,0.0837044,-9.80932,0.0836425,0.00362657,-0.0759906,0.074396,0.0837044,-0.0155754,
3.29899,5.71902,14.6347,91.6131,0.705837,0.12415,-0.0567132,0.695101,0.0142596,-0.0172533,-0.00343962,2.35857,-9.49516,0.196177,-0.24367,0.401124,0.145082,23.74,99.015,0.025001,0.00501895,-0.00452532,0.0128522,0.0605953,-0.236863,0.00266859,-0.119239,-0.16904,0.445569,-0.123896,0.0591437,-9.78471,-0.115861,-0.0229082,-0.0705786,-0.123896,0.0591437,0.00903893,
3.3242,5.71902,14.6347,91.6131,0.705837,0.12415,-0.0567132,0.695101,0.0142596,-0.0172533,-0.00343962,2.35857,-9.49516,0.196177,-0.24367,0.401124,0.145082,23.74,99.015,0.025001,0.00501895,-0.00452532,0.0128522,0.0605953,-0.236863,0.00266859,-0.119239,-0.16904,0.445569,-0.123896,0.0591437,-9.78471,-0.115861,-0.0229082,-0.0705786,-0.123896,0.0591437,0.00903893,
3.34942,5.724,14.6284,91.6249,0.70591,0.124138,-0.0566568,0.695033,-0.0049012,0.0153493,0.00663228,2.6317,-9.36495,0.413678,-0.247384,0.406202,0.149253,23.74,99.015,0.025001,0.00399631,-0.000607968,0.00919773,0.0638758,-0.236989,0.0105062,-0.121173,-0.173663,0.451257,0.193131,-0.129333,-9.73372,0.158298,0.107511,0.14496,0.193131,-0.129333,0.060029,
3.37467,5.73135,14.6217,91.6242,0.705905,0.124143,-0.0565696,0.695044,0.00287777,0.00911212,-0.035364,0.581428,-9.55819,0.294004,-0.247398,0.405205,0.14816,23.74,99.026,0.024999,-0.00588191,0.010212,0.0147301,0.0447651,-0.241771,0.00963658,-0.121571,-0.172589,0.450313,-1.83982,-0.207735,-9.39976,-1.89086,-0.0854376,0.0253969,-1.83982,-0.207735,0.393988,
3.39999,5.73135,14.6217,91.6242,0.705905,0.124143,-0.0565696,0.695044,0.00287777,0.00911212,-0.035364,0.581428,-9.55819,0.294004,-0.247398,0.405205,0.14816,23.74,99.026,0.024999,-0.00588191,0.010212,0.0147301,0.0447651,-0.241771,0.00963658,-0.121571,-0.172589,0.450313,-1.83982,-0.207735,-9.39976,-1.89086,-0.0854376,0.0253969,-1.83982,-0.207735,0.393988,
3.42526,5.78769,14.6417,91.639,0.705911,0.124603,-0.0563688,0.694972,-0.0101416,0.0230531,-0.0105658,2.15443,-9.66286,0.848927,-0.260625,0.406501,0.141963,23.74,99.015,0.024999,0.00579228,0.00510193,0.0280969,0.0822413,-0.229151,0.0267994,-0.134227,-0.167923,0.45509,-0.303638,-0.605913,-9.91331,-0.321175,-0.191035,0.577905,-0.303638,-0.605913,-0.119563,
3.45071,5.78769,14.6417,91.639,0.705911,0.124603,-0.0563688,0.694972,-0.0101416,0.0230531,-0.0105658,2.15443,-9.66286,0.848927,-0.260625,0.406501,0.141963,23.74,99.015,0.024999,0.00579228,0.00510193,0.0280969,0.0822413,-0.229151,0.0267994,-0.134227,-0.167923,0.45509,-0.303638,-0.605913,-9.91331,-0.321175,-0.191035,0.577905,-0.303638,-0.605913,-0.119563,
3.47596,5.8864,14.7034,91.6483,0.705792,0.125576,-0.0561655,0.694935,0.00302864,0.0332569,-0.0396315,0.811776,-10.0132,-0.222343,-0.240803,0.403075,0.151825,23.735,99.026,0.024999,-0.00739972,0.0481276,-0.022004,0.0292207,-0.246719,-0.00799632,-0.114313,-0.176008,0.44661,-1.79673,0.327742,-9.88113,-1.67403,-0.544089,-0.494834,-1.79673,0.327742,-0.087389,
3.50118,5.8864,14.7034,91.6483,0.705792,0.125576,-0.0561655,0.694935,0.00302864,0.0332569,-0.0396315,0.811776,-10.0132,-0.222343,-0.240803,0.403075,0.151825,23.735,99.026,0.024999,-0.00739972,0.0481276,-0.022004,0.0292207,-0.246719,-0.00799632,-0.114313,-0.176008,0.44661,-1.79673,0.327742,-9.88113,-1.67403,-0.544089,-0.494834,-1.79673,0.327742,-0.087389,
3.52646,5.92259,14.7533,91.6823,0.705903,0.12608,-0.0562943,0.69472,0.0202249,-0.0246848,-0.000382801,3.69971,-9.06903,0.819508,-0.23509,0.407867,0.14876,23.745,99.019,0.024999,0.0292166,-0.0107174,-0.0176614,0.0816255,-0.230681,0.00989125,-0.107386,-0.172672,0.449895,1.31342,-0.419621,-9.73168,1.20566,0.397751,0.541463,1.31342,-0.419621,0.0620689,
3.55183,5.89318,14.7485,91.695,0.706017,0.125864,-0.0564566,0.69463,0.0174553,-0.0282206,0.00313153,3.12969,-9.25957,0.55181,-0.231334,0.40579,0.148972,23.76,99.03,0.025001,0.0168729,-0.0253707,0.0137589,0.0722464,-0.233404,0.0125441,-0.104411,-0.172542,0.44688,0.691171,-0.207818,-9.7631,0.636431,0.207353,0.271671,0.691171,-0.207818,0.0306425,
3.57708,5.89318,14.7485,91.695,0.706017,0.125864,-0.0564566,0.69463,0.0174553,-0.0282206,0.00313153,3.12969,-9.25957,0.55181,-0.231334,0.40579,0.148972,23.76,99.03,0.025001,0.0168729,-0.0253707,0.0137589,0.0722464,-0.233404,0.0125441,-0.104411,-0.172542,0.44688,0.691171,-0.207818,-9.7631,0.636431,0.207353,0.271671,0.691171,-0.207818,0.0306425,
3.60233,5.82343,14.7156,91.712,0.706233,0.125229,-0.0566931,0.694506,0.010631,-0.0186033,0.0140248,2.43551,-9.47525,0.211149,-0.228431,0.413608,0.142427,23.74,99.004,0.024999,0.0097605,-0.0206989,0.0270774,0.0650258,-0.236152,0.00756177,-0.100698,-0.165793,0.453774,-0.0588675,0.0663953,-9.78513,-0.0523149,-0.00698475,-0.071849,-0.0588675,0.0663953,0.00861263,
3.62757,5.82343,14.7156,91.712,0.706233,0.125229,-0.0566931,0.694506,0.010631,-0.0186033,0.0140248,2.43551,-9.47525,0.211149,-0.228431,0.413608,0.142427,23.74,99.004,0.024999,0.0097605,-0.0206989,0.0270774,0.0650258,-0.236152,0.00756177,-0.100698,-0.165793,0.453774,-0.0588675,0.0663953,-9.78513,-0.0523149,-0.00698475,-0.071849,-0.0588675,0.0663953,0.00861263,
3.65285,5.79172,14.6912,91.7302,0.706405,0.124879,-0.0567527,0.694389,0.00484137,0.00948637,0.00205584,2.1097,-9.60483,0.189437,-0.22932,0.419553,0.137912,23.74,99.015,0.025001,0.00717235,0.000796441,0.0161342,0.0525263,-0.239709,0.00334305,-0.100741,-0.161507,0.459781,-0.403636,0.0602202,-9.82715,-0.374096,-0.135594,-0.0965948,-0.403636,0.0602202,-0.0334053,
3.6781,5.82859,14.6901,91.7443,0.706452,0.125092,-0.0565374,0.694321,0.00249204,0.0329278,-0.00191469,2.20824,-9.57762,0.291396,-0.232203,0.416613,0.13118,23.755,99.019,0.024999,0.00151643,0.0385997,0.00817217,0.0543327,-0.23964,0.00527918,-0.104801,-0.155246,0.45783,-0.292371,-0.0295714,-9.82882,-0.275362,-0.108408,0.00302857,-0.292371,-0.0295714,-0.0350752,
3.70336,5.82859,14.6901,91.7443,0.706452,0.125092,-0.0565374,0.694321,0.00249204,0.0329278,-0.00191469,2.20824,-9.57762,0.291396,-0.232203,0.416613,0.13118,23.755,99.019,0.024999,0.00151643,0.0385997,0.00817217,0.0543327,-0.23964,0.00527918,-0.104801,-0.155246,0.45783,-0.292371,-0.0295714,-9.82882,-0.275362,-0.108408,0.00302857,-0.292371,-0.0295714,-0.0350752,
3.72863,5.91204,14.7053,91.7785,0.706551,0.125681,-0.0561642,0.694144,0.00820771,0.00820145,-0.0108301,2.06271,-9.6014,0.469938,-0.23406,0.419636,0.131056,23.76,99.019,0.025,0.007221,0.0290872,-0.00369086,0.0545768,-0.239191,0.0101569,-0.105477,-0.155709,0.461176,-0.424619,-0.216613,-9.82014,-0.423406,-0.133015,0.175937,-0.424619,-0.216613,-0.0263968,
3.75387,5.91204,14.7053,91.7785,0.706551,0.125681,-0.0561642,0.694144,0.00820771,0.00820145,-0.0108301,2.06271,-9.6014,0.469938,-0.23406,0.419636,0.131056,23.76,99.019,0.025,0.007221,0.0290872,-0.00369086,0.0545768,-0.239191,0.0101569,-0.105477,-0.155709,0.461176,-0.424619,-0.216613,-9.82014,-0.423406,-0.133015,0.175937,-0.424619,-0.216613,-0.0263968,
3.77913,6.01051,14.7689,91.802,0.706514,0.126657,-0.0559909,0.694019,-0.00681321,0.0492187,-0.0351299,1.86947,-9.65301,0.274221,-0.240651,0.421778,0.129597,23.755,99.03,0.024999,-0.0158654,0.0819343,-0.033197,0.046625,-0.241156,0.0108592,-0.110626,-0.155232,0.465048,-0.653518,-0.0391905,-9.81438,-0.627161,-0.187513,-0.0235707,-0.653518,-0.0391905,-0.0206356,
3.80441,6.01051,14.7689,91.802,0.706514,0.126657,-0.0559909,0.694019,-0.00681321,0.0492187,-0.0351299,1.86947,-9.65301,0.274221,-0.240651,0.421778,0.129597,23.755,99.03,0.024999,-0.0158654,0.0819343,-0.033197,0.046625,-0.241156,0.0108592,-0.110626,-0.155232,0.465048,-0.653518,-0.0391905,-9.81438,-0.627161,-0.187513,-0.0235707,-0.653518,-0.0391905,-0.0206356,
3.82968,6.09643,14.889,91.82,0.706392,0.127895,-0.0562413,0.693895,-0.00444175,0.0332431,-0.0491125,2.20675,-9.53687,0.39617,-0.244459,0.419873,0.126115,23.74,99.026,0.024999,-0.00737977,0.047745,-0.0595663,0.0525908,-0.239623,0.00947692,-0.113915,-0.152346,0.464513,-0.308123,-0.126526,-9.7912,-0.309734,-0.076718,0.095572,-0.308123,-0.126526,0.00254726,
3.85492,6.14536,14.9632,91.8259,0.706289,0.128636,-0.0564152,0.693849,-0.00661481,0.0323797,-0.0552506,2.32194,-9.5325,0.513227,-0.249167,0.419067,0.136909,23.75,99.015,0.025001,-0.0101067,0.0477664,-0.0678913,0.0563229,-0.238591,0.0127476,-0.11685,-0.163641,0.464772,-0.197375,-0.231699,-9.81992,-0.206791,-0.075649,0.211756,-0.197375,-0.231699,-0.0261717,
3.88018,6.14536,14.9632,91.8259,0.706289,0.128636,-0.0564152,0.693849,-0.00661481,0.0323797,-0.0552506,2.32194,-9.5325,0.513227,-0.249167,0.419067,0.136909,23.75,99.015,0.025001,-0.0101067,0.0477664,-0.0678913,0.0563229,-0.238591,0.0127476,-0.11685,-0.163641,0.464772,-0.197375,-0.231699,-9.81992,-0.206791,-0.075649,0.211756,-0.197375,-0.231699,-0.0261717,
3.90551,6.25245,15.1276,91.8283,0.705994,0.130276,-0.0567967,0.693811,-0.00951453,0.0287991,-0.0613866,2.39995,-9.48116,0.419218,-0.252055,0.415141,0.131288,23.74,99.015,0.025001,-0.0171869,0.0480436,-0.0782928,0.0589869,-0.2378,0.0101261,-0.119586,-0.158433,0.462286,-0.146102,-0.133211,-9.78717,-0.15592,-0.0316074,0.117575,-0.146102,-0.133211,0.00657272,
3.9308,6.25245,15.1276,91.8283,0.705994,0.130276,-0.0567967,0.693811,-0.00951453,0.0287991,-0.0613866,2.39995,-9.48116,0.419218,-0.252055,0.415141,0.131288,23.74,99.015,0.025001,-0.0171869,0.0480436,-0.0782928,0.0589869,-0.2378,0.0101261,-0.119586,-0.158433,0.462286,-0.146102,-0.133211,-9.78717,-0.15592,-0.0316074,0.117575,-0.146102,-0.133211,0.00657272,
3.95605,6.34923,15.3009,91.8191,0.705627,0.131909,-0.0572825,0.693837,-0.0151119,0.0363411,-0.0604772,2.81464,-9.39573,0.460316,-0.25676,0.417229,0.128823,23.74,99.015,0.025001,-0.0237388,0.0503161,-0.0795245,0.0677414,-0.235588,0.0116203,-0.122137,-0.156469,0.466048,0.249316,-0.135083,-9.81496,0.230192,0.0461004,0.160444,0.249316,-0.135083,-0.0212135,
3.98134,6.47504,15.4514,91.8032,0.705208,0.133589,-0.0574427,0.693928,-0.0171025,0.0430546,-0.0502608,2.84299,-9.35943,0.26356,-0.259459,0.429207,0.130771,23.74,99.026,0.025001,-0.0283908,0.0642648,-0.0659984,0.0714535,-0.234173,0.00737109,-0.119749,-0.158729,0.478649,0.240641,0.0585895,-9.78211,0.233732,0.0756634,-0.033476,0.240641,0.0585895,0.0116367,
4.00663,6.47504,15.4514,91.8032,0.705208,0.133589,-0.0574427,0.693928,-0.0171025,0.0430546,-0.0502608,2.84299,-9.35943,0.26356,-0.259459,0.429207,0.130771,23.74,99.026,0.025001,-0.0283908,0.0642648,-0.0659984,0.0714535,-0.234173,0.00737109,-0.119749,-0.158729,0.478649,0.240641,0.0585895,-9.78211,0.233732,0.0756634,-0.033476,0.240641,0.0585895,0.0116367,
4.0319,6.53714,15.5164,91.7987,0.705031,0.134361,-0.0574673,0.693956,-0.0120594,0.0365949,-0.0468617,2.77752,-9.38759,0.191436,-0.258613,0.420264,0.130904,23.76,99.008,0.024999,-0.0246148,0.0606279,-0.0587797,0.0699216,-0.234921,0.00506062,-0.120621,-0.158795,0.469971,0.15178,0.121387,-9.78981,0.157561,0.0445612,-0.104769,0.15178,0.121387,0.00393486,
4.05722,6.53714,15.5164,91.7987,0.705031,0.134361,-0.0574673,0.693956,-0.0120594,0.0365949,-0.0468617,2.77752,-9.38759,0.191436,-0.258613,0.420264,0.130904,23.76,99.008,0.024999,-0.0246148,0.0606279,-0.0587797,0.0699216,-0.234921,0.00506062,-0.120621,-0.158795,0.469971,0.15178,0.121387,-9.78981,0.157561,0.0445612,-0.104769,0.15178,0.121387,0.00393486,
4.08258,6.62236,15.6368,91.7991,0.70479,0.135603,-0.0577039,0.693941,-0.00594016,0.0286797,-0.0426923,2.69308,-9.43984,0.190687,-0.262437,0.41639,0.129646,23.76,99.019,0.024999,-0.0119428,0.0407026,-0.051751,0.0679785,-0.235599,0.00549867,-0.124247,-0.158037,0.467599,0.0361231,0.110675,-9.81764,0.0532865,-0.0132166,-0.105408,0.0361231,0.110675,-0.0238972,
4.10791,6.62236,15.6368,91.7991,0.70479,0.135603,-0.0577039,0.693941,-0.00594016,0.0286797,-0.0426923,2.69308,-9.43984,0.190687,-0.262437,0.41639,0.129646,23.76,99.019,0.024999,-0.0119428,0.0407026,-0.051751,0.0679785,-0.235599,0.00549867,-0.124247,-0.158037,0.467599,0.0361231,0.110675,-9.81764,0.0532865,-0.0132166,-0.105408,0.0361231,0.110675,-0.0238972,
4.13315,6.7249,15.7506,91.8146,0.704624,0.136903,-0.0578123,0.693844,-0.00276869,0.0317606,-0.0412427,2.67829,-9.40849,0.212223,-0.264322,0.417417,0.127335,23.76,99.008,0.025,-0.00815076,0.0533101,-0.0507924,0.0658998,-0.236066,0.00484898,-0.12481,-0.156179,0.469413,0.0130352,0.0879348,-9.78418,0.0197723,0.0127953,-0.0862517,0.0130352,0.0879348,0.00957012,
4.15841,6.74369,15.8559,91.8368,0.704609,0.137634,-0.0583826,0.693668,0.0111094,-0.0142761,-0.0316818,3.07792,-9.31063,0.463367,-0.26423,0.426324,0.125046,23.755,99.019,0.024999,0.0107378,-0.00761679,-0.0405292,0.0752427,-0.233134,0.00964961,-0.121611,-0.153993,0.478229,0.430699,-0.114914,-9.80701,0.402089,0.105641,0.161392,0.430699,-0.114914,-0.0132647,
4.18372,6.74369,15.8559,91.8368,0.704609,0.137634,-0.0583826,0.693668,0.0111094,-0.0142761,-0.0316818,3.07792,-9.31063,0.463367,-0.26423,0.426324,0.125046,23.755,99.019,0.024999,0.0107378,-0.00761679,-0.0405292,0.0752427,-0.233134,0.00964961,-0.121611,-0.153993,0.478229,0.430699,-0.114914,-9.80701,0.402089,0.105641,0.161392,0.430699,-0.114914,-0.0132647,
4.20904,6.71918,15.8927,91.8452,0.704644,0.137698,-0.0587709,0.693586,0.0116245,-0.0179856,-0.0230542,3.1343,-9.29322,0.511866,-0.264272,0.422367,0.126186,23.76,99.019,0.025001,0.0116855,-0.0218187,-0.0273041,0.0780815,-0.232794,0.0123904,-0.122377,-0.155104,0.474472,0.488129,-0.15633,-9.8075,0.45242,0.121291,0.208572,0.488129,-0.15633,-0.0137539,
4.23427,6.71918,15.8927,91.8452,0.704644,0.137698,-0.0587709,0.693586,0.0116245,-0.0179856,-0.0230542,3.1343,-9.29322,0.511866,-0.264272,0.422367,0.126186,23.76,99.019,0.025001,0.0116855,-0.0218187,-0.0273041,0.0780815,-0.232794,0.0123904,-0.122377,-0.155104,0.474472,0.488129,-0.15633,-9.8075,0.45242,0.121291,0.208572,0.488129,-0.15633,-0.0137539,
4.25954,6.68063,15.9353,91.8546,0.704696,0.13771,-0.0592822,0.693488,0.00624018,-0.0144303,-0.00714913,3.06619,-9.33958,0.320874,-0.26144,0.422296,0.126332,23.75,99.019,0.024999,0.00498168,-0.0151176,-0.00653741,0.075986,-0.233226,0.00938695,-0.119428,-0.154878,0.473703,0.382196,0.0261985,-9.8278,0.377293,0.0728747,0.0160921,0.382196,0.0261985,-0.03405,
4.28486,6.62376,15.9383,91.8604,0.704796,0.137375,-0.0596515,0.693421,0.00668215,-0.0184099,0.00553118,3.00165,-9.33154,0.349658,-0.264195,0.429321,0.128327,23.76,99.019,0.025001,0.00876504,-0.0283823,0.0135124,0.0760196,-0.233183,0.00869418,-0.120034,-0.157092,0.481142,0.325258,-0.00906667,-9.80326,0.312275,0.0807498,0.043926,0.325258,-0.00906667,-0.00951767,
4.31016,6.62376,15.9383,91.8604,0.704796,0.137375,-0.0596515,0.693421,0.00668215,-0.0184099,0.00553118,3.00165,-9.33154,0.349658,-0.264195,0.429321,0.128327,23.76,99.019,0.025001,0.00876504,-0.0283823,0.0135124,0.0760196,-0.233183,0.00869418,-0.120034,-0.157092,0.481142,0.325258,-0.00906667,-9.80326,0.312275,0.0807498,0.043926,0.325258,-0.00906667,-0.00951767,
4.3354,6.60843,15.9268,91.8644,0.704852,0.13721,-0.0596776,0.693394,0.00649395,-0.00901852,0.0114447,2.91102,-9.38078,0.336494,-0.263388,0.417376,0.124077,23.755,99.004,0.024999,0.00476448,-0.0114428,0.0209254,0.073289,-0.234068,0.00880187,-0.12315,-0.152778,0.469536,0.225558,-0.00518918,-9.82524,0.223527,0.0320278,0.0300865,0.225558,-0.00518918,-0.031497,
4.36067,6.60843,15.9268,91.8644,0.704852,0.13721,-0.0596776,0.693394,0.00649395,-0.00901852,0.0114447,2.91102,-9.38078,0.336494,-0.263388,0.417376,0.124077,23.755,99.004,0.024999,0.00476448,-0.0114428,0.0209254,0.073289,-0.234068,0.00880187,-0.12315,-0.152778,0.469536,0.225558,-0.00518918,-9.82524,0.223527,0.0320278,0.0300865,0.225558,-0.00518918,-0.031497,
4.38591,6.55714,15.8886,91.87,0.704993,0.136665,-0.0597561,0.693352,0.00622792,-0.0157304,0.0172449,2.85387,-9.38192,0.329506,-0.263328,0.422344,0.126235,23.76,99.019,0.025,0.00719983,-0.0233862,0.031837,0.0712433,-0.234473,0.00820814,-0.121943,-0.154888,0.474121,0.176294,-0.00306576,-9.81033,0.172653,0.0326408,0.0221241,0.176294,-0.00306576,-0.0165844,
4.41121,6.55714,15.8886,91.87,0.704993,0.136665,-0.0597561,0.693352,0.00622792,-0.0157304,0.0172449,2.85387,-9.38192,0.329506,-0.263328,0.422344,0.126235,23.76,99.019,0.025,0.00719983,-0.0233862,0.031837,0.0712433,-0.234473,0.00820814,-0.121943,-0.154888,0.474121,0.176294,-0.00306576,-9.81033,0.172653,0.0326408,0.0221241,0.176294,-0.00306576,-0.0165844,
4.43648,6.51294,15.8327,91.883,0.705192,0.136053,-0.0596892,0.693276,0.0110141,-0.0193929,0.0203304,2.706,-9.42042,0.299703,-0.263312,0.424313,0.124011,23.76,99.008,0.024999,0.0107145,-0.0195027,0.0385555,0.0685373,-0.235234,0.00780199,-0.122197,-0.152733,0.475914,0.0305379,0.0135565,-9.80589,0.0339811,-0.00330857,-0.00990178,0.0305379,0.0135565,-0.0121393,
4.46175,6.49849,15.7733,91.8958,0.705358,0.135604,-0.0594207,0.693218,0.00410805,0.00302768,0.0213896,2.66342,-9.4193,0.37893,-0.263346,0.421341,0.12404,23.76,99.008,0.024999,0.00105875,0.00766455,0.0378169,0.0661015,-0.235749,0.00944772,-0.123566,-0.152878,0.472891,0.00825316,-0.0666051,-9.79572,0.00117236,0.000505887,0.0671313,0.00825316,-0.0666051,-0.00196934,
4.48723,6.49849,15.7733,91.8958,0.705358,0.135604,-0.0594207,0.693218,0.00410805,0.00302768,0.0213896,2.66342,-9.4193,0.37893,-0.263346,0.421341,0.12404,23.76,99.008,0.024999,0.00105875,0.00766455,0.0378169,0.0661015,-0.235749,0.00944772,-0.123566,-0.152878,0.472891,0.00825316,-0.0666051,-9.79572,0.00117236,0.000505887,0.0671313,0.00825316,-0.0666051,-0.00196934,
4.51269,6.49553,15.7408,91.8998,0.705424,0.13539,-0.0592401,0.693208,0.00494274,-0.00703819,0.0238017,2.84076,-9.38047,0.406587,-0.264282,0.423316,0.11846,23.76,99.019,0.025001,0.00126879,0.00112882,0.0412382,0.0697891,-0.234966,0.0102036,-0.124777,-0.14749,0.475133,0.196779,-0.0736018,-9.80736,0.183863,0.0408201,0.0940886,0.196779,-0.0736018,-0.0136137,
4.53796,6.49553,15.7408,91.8998,0.705424,0.13539,-0.0592401,0.693208,0.00494274,-0.00703819,0.0238017,2.84076,-9.38047,0.406587,-0.264282,0.423316,0.11846,23.76,99.019,0.025001,0.00126879,0.00112882,0.0412382,0.0697891,-0.234966,0.0102036,-0.124777,-0.14749,0.475133,0.196779,-0.0736018,-9.80736,0.183863,0.0408201,0.0940886,0.196779,-0.0736018,-0.0136137,
4.56326,6.34098,15.6625,91.902,0.705713,0.133971,-0.0596885,0.693151,0.0025446,-0.020787,0.029049,2.45742,-9.45874,0.546294,-0.263352,0.42326,0.112995,23.75,99.015,0.025001,0.0115688,-0.0600383,0.0558345,0.0682477,-0.235406,0.0150668,-0.125498,-0.141708,0.474805,-0.164099,-0.251725,-9.7834,-0.186602,-0.0338476,0.233313,-0.164099,-0.251725,0.0103483,
4.5885,6.34265,15.584,91.8988,0.705784,0.133516,-0.0591838,0.693209,0.00727606,-0.0230885,0.0280165,2.64274,-9.43335,0.29136,-0.261487,0.420258,0.116428,23.76,99.008,0.025001,-0.00148526,-0.0107348,0.0466867,0.0623155,-0.237207,0.00562947,-0.124819,-0.144965,0.471119,0.00768627,0.0223527,-9.80084,0.0116429,-0.0048236,-0.0212185,0.00768627,0.0223527,-0.00709438,
4.61375,6.34265,15.584,91.8988,0.705784,0.133516,-0.0591838,0.693209,0.00727606,-0.0230885,0.0280165,2.64274,-9.43335,0.29136,-0.261487,0.420258,0.116428,23.76,99.008,0.025001,-0.00148526,-0.0107348,0.0466867,0.0623155,-0.237207,0.00562947,-0.124819,-0.144965,0.471119,0.00768627,0.0223527,-9.80084,0.0116429,-0.0048236,-0.0212185,0.00768627,0.0223527,-0.00709438,
4.63901,6.32563,15.5165,91.9027,0.705908,0.133007,-0.0588695,0.693209,0.00228569,0.00511862,0.020081,2.36801,-9.47363,0.186171,-0.26134,0.433162,0.119614,23.76,99.019,0.025001,-0.000309888,0.00555885,0.0401904,0.0614287,-0.236934,0.00616107,-0.121473,-0.148217,0.483231,-0.265511,0.0998357,-9.76276,-0.251967,-0.042039,-0.127156,-0.265511,0.0998357,0.0309887,
4.66424,6.32563,15.5165,91.9027,0.705908,0.133007,-0.0588695,0.693209,0.00228569,0.00511862,0.020081,2.36801,-9.47363,0.186171,-0.26134,0.433162,0.119614,23.76,99.019,0.025001,-0.000309888,0.00555885,0.0401904,0.0614287,-0.236934,0.00616107,-0.121473,-0.148217,0.483231,-0.265511,0.0998357,-9.76276,-0.251967,-0.042039,-0.127156,-0.265511,0.0998357,0.0309887,
4.68948,6.33154,15.4892,91.91,0.705977,0.132877,-0.0586719,0.69318,0.00390123,0.00600172,0.0183463,2.40495,-9.51528,0.339321,-0.26228,0.434165,0.117352,23.76,99.019,0.024999,0.00243682,0.00952293,0.0352314,0.0615698,-0.237232,0.00671789,-0.122544,-0.146163,0.484439,-0.22133,-0.0466854,-9.81775,-0.21054,-0.0824787,0.0247548,-0.22133,-0.0466854,-0.0240078,
4.71491,6.33154,15.4892,91.91,0.705977,0.132877,-0.0586719,0.69318,0.00390123,0.00600172,0.0183463,2.40495,-9.51528,0.339321,-0.26228,0.434165,0.117352,23.76,99.019,0.024999,0.00243682,0.00952293,0.0352314,0.0615698,-0.237232,0.00671789,-0.122544,-0.146163,0.484439,-0.22133,-0.0466854,-9.81775,-0.21054,-0.0824787,0.0247548,-0.22133,-0.0466854,-0.0240078,
4.74014,6.3154,15.4496,91.9264,0.706141,0.132533,-0.0585407,0.693089,0.0107888,-0.0124219,0.0102717,2.38393,-9.51808,0.356832,-0.261408,0.42721,0.118568,23.76,99.019,0.024999,0.00993597,-0.0152447,0.0254875,0.059576,-0.237918,0.00757481,-0.123823,-0.147377,0.477335,-0.234021,-0.0627927,-9.81558,-0.225036,-0.0835693,0.0395006,-0.234021,-0.0627927,-0.0218363,
4.76548,6.30103,15.4355,91.9477,0.706303,0.13235,-0.0585638,0.692957,0.0082187,0.000281098,0.000535428,2.34509,-9.5315,0.283781,-0.258561,0.430075,0.11207,23.775,99.023,0.024999,0.00980648,0.000437016,0.0112772,0.0586817,-0.237986,0.00735854,-0.121132,-0.140767,0.479469,-0.280188,0.00964057,-9.81585,-0.261546,-0.0964672,-0.0370763,-0.280188,0.00964057,-0.0221081,
4.7909,6.30103,15.4355,91.9477,0.706303,0.13235,-0.0585638,0.692957,0.0082187,0.000281098,0.000535428,2.34509,-9.5315,0.283781,-0.258561,0.430075,0.11207,23.775,99.023,0.024999,0.00980648,0.000437016,0.0112772,0.0586817,-0.237986,0.00735854,-0.121132,-0.140767,0.479469,-0.280188,0.00964057,-9.81585,-0.261546,-0.0964672,-0.0370763,-0.280188,0.00964057,-0.0221081,
4.81619,6.31921,15.4452,91.9777,0.706452,0.132504,-0.0585495,0.692777,0.00999644,0.00772637,-0.00836564,2.40055,-9.50442,0.313305,-0.258593,0.428067,0.107678,23.76,99.019,0.024999,0.0103122,0.0133401,-0.000790332,0.0599536,-0.237871,0.00706429,-0.122011,-0.136647,0.477647,-0.219013,-0.00928167,-9.80545,-0.207689,-0.0699966,-0.0124728,-0.219013,-0.00928167,-0.0117025,
4.84141,6.31921,15.4452,91.9777,0.706452,0.132504,-0.0585495,0.692777,0.00999644,0.00772637,-0.00836564,2.40055,-9.50442,0.313305,-0.258593,0.428067,0.107678,23.76,99.019,0.024999,0.0103122,0.0133401,-0.000790332,0.0599536,-0.237871,0.00706429,-0.122011,-0.136647,0.477647,-0.219013,-0.00928167,-9.80545,-0.207689,-0.0699966,-0.0124728,-0.219013,-0.00928167,-0.0117025,
4.8667,6.33061,15.4578,91.9961,0.706536,0.13264,-0.0585806,0.692663,0.0122988,0.00448423,-0.0121388,2.43228,-9.49436,0.305664,-0.261419,0.428159,0.110842,23.76,99.019,0.025001,0.0122925,0.0133989,-0.00618839,0.0604368,-0.237751,0.00782495,-0.124238,-0.140242,0.478375,-0.189159,0.00440159,-9.8039,-0.17803,-0.0606122,-0.0231352,-0.189159,0.00440159,-0.0101576,
4.89193,6.30369,15.4947,92.0394,0.706785,0.132672,-0.0590244,0.692365,0.017911,-0.00783068,-0.0166044,2.24554,-9.54065,0.413505,-0.257685,0.424099,0.111072,23.76,99.008,0.025,0.0261361,-0.017702,-0.0135624,0.0585917,-0.23785,0.00847754,-0.121481,-0.14028,0.473458,-0.376739,-0.115793,-9.80215,-0.370859,-0.108834,0.0776498,-0.376739,-0.115793,-0.00839996,
4.91735,6.30369,15.4947,92.0394,0.706785,0.132672,-0.0590244,0.692365,0.017911,-0.00783068,-0.0166044,2.24554,-9.54065,0.413505,-0.257685,0.424099,0.111072,23.76,99.008,0.025,0.0261361,-0.017702,-0.0135624,0.0585917,-0.23785,0.00847754,-0.121481,-0.14028,0.473458,-0.376739,-0.115793,-9.80215,-0.370859,-0.108834,0.0776498,-0.376739,-0.115793,-0.00839996,
4.94287,6.32311,15.5635,92.0821,0.706939,0.133178,-0.0593869,0.692079,0.0118309,0.00862335,-0.0323253,2.36789,-9.52354,0.321283,-0.257621,0.430037,0.109913,23.77,99.023,0.025001,0.0132576,0.0137443,-0.0341467,0.0575026,-0.238391,0.00941513,-0.119308,-0.139453,0.47927,-0.276665,-0.00557107,-9.81486,-0.259826,-0.0951258,-0.0214915,-0.276665,-0.00557107,-0.0211124,
4.96809,6.32311,15.5635,92.0821,0.706939,0.133178,-0.0593869,0.692079,0.0118309,0.00862335,-0.0323253,2.36789,-9.52354,0.321283,-0.257621,0.430037,0.109913,23.77,99.023,0.025001,0.0132576,0.0137443,-0.0341467,0.0575026,-0.238391,0.00941513,-0.119308,-0.139453,0.47927,-0.276665,-0.00557107,-9.81486,-0.259826,-0.0951258,-0.0214915,-0.276665,-0.00557107,-0.0211124,
4.99332,6.33055,15.6102,92.1032,0.707003,0.133491,-0.0596591,0.69193,0.0153585,-0.00225422,-0.0351821,2.55472,-9.46533,0.166279,-0.256643,0.432995,0.111036,23.76,99.03,0.024999,0.0160195,0.00827166,-0.0409867,0.0620458,-0.237016,0.00593302,-0.117046,-0.140616,0.481878,-0.105932,0.170569,-9.80338,-0.0806958,-0.0391795,-0.179892,-0.105932,0.170569,-0.00963593,
5.01861,6.33055,15.6102,92.1032,0.707003,0.133491,-0.0596591,0.69193,0.0153585,-0.00225422,-0.0351821,2.55472,-9.46533,0.166279,-0.256643,0.432995,0.111036,23.76,99.03,0.024999,0.0160195,0.00827166,-0.0409867,0.0620458,-0.237016,0.00593302,-0.117046,-0.140616,0.481878,-0.105932,0.170569,-9.80338,-0.0806958,-0.0391795,-0.179892,-0.105932,0.170569,-0.00963593,
5.04379,6.29442,15.7095,92.1604,0.707273,0.133828,-0.0605655,0.691511,0.0244675,-0.00621551,-0.0375474,2.51952,-9.47429,0.318956,-0.253865,0.427969,0.111228,23.765,99.023,0.025,0.0336065,-0.0182765,-0.0437059,0.0633908,-0.236763,0.00624572,-0.114987,-0.140738,0.47639,-0.14464,0.0227025,-9.80767,-0.132232,-0.053069,-0.036449,-0.14464,0.0227025,-0.0139246,
5.06901,6.32021,15.8153,92.229,0.70753,0.134579,-0.0611533,0.69105,0.0252807,0.00557051,-0.0372404,2.69474,-9.3936,0.284327,-0.255764,0.428964,0.103405,23.775,99.012,0.024999,0.0291982,0.0154773,-0.0466049,0.0669566,-0.235421,0.00731117,-0.116354,-0.133631,0.478249,0.0224128,0.0842115,-9.77623,0.0255787,0.0222731,-0.0821608,0.0224128,0.0842115,0.0175171,
5.09422,6.32021,15.8153,92.229,0.70753,0.134579,-0.0611533,0.69105,0.0252807,0.00557051,-0.0372404,2.69474,-9.3936,0.284327,-0.255764,0.428964,0.103405,23.775,99.012,0.024999,0.0291982,0.0154773,-0.0466049,0.0669566,-0.235421,0.00731117,-0.116354,-0.133631,0.478249,0.0224128,0.0842115,-9.77623,0.0255787,0.0222731,-0.0821608,0.0224128,0.0842115,0.0175171,
5.11946,6.34201,15.9195,92.3112,0.707875,0.135288,-0.061772,0.690503,0.0295699,0.0115012,-0.0372301,2.68831,-9.43662,0.263972,-0.25576,0.428013,0.11003,23.76,99.008,0.025,0.0371512,0.0145381,-0.0444974,0.067098,-0.235406,0.00645654,-0.11502,-0.140768,0.477148,-0.0168273,0.115642,-9.81493,0.00201234,-0.0261493,-0.115832,-0.0168273,0.115642,-0.0211859,
5.14476,6.34201,15.9195,92.3112,0.707875,0.135288,-0.061772,0.690503,0.0295699,0.0115012,-0.0372301,2.68831,-9.43662,0.263972,-0.25576,0.428013,0.11003,23.76,99.008,0.025,0.0371512,0.0145381,-0.0444974,0.067098,-0.235406,0.00645654,-0.11502,-0.140768,0.477148,-0.0168273,0.115642,-9.81493,0.00201234,-0.0261493,-0.115832,-0.0168273,0.115642,-0.0211859,
5.16998,6.36745,15.9711,92.3569,0.708059,0.135726,-0.0619961,0.690209,0.0283731,0.0173488,-0.0374714,2.6657,-9.42563,0.326954,-0.256721,0.427033,0.107786,23.76,99.019,0.025001,0.0365411,0.0253997,-0.044982,0.0669902,-0.235496,0.00773371,-0.115934,-0.138971,0.476578,-0.0387488,0.0570042,-9.80054,-0.0290747,-0.0178864,-0.0602653,-0.0387488,0.0570042,-0.00679874,
5.1952,6.4379,16.0717,92.4566,0.708453,0.136703,-0.0623216,0.689581,0.0291067,0.0288359,-0.0344697,2.80929,-9.37418,0.332116,-0.254887,0.42203,0.107929,23.78,99.012,0.025001,0.0389647,0.037991,-0.0431291,0.0696276,-0.234815,0.00790293,-0.114543,-0.139643,0.47128,0.0942978,0.0810783,-9.79092,0.0979953,0.0281404,-0.0712655,0.0942978,0.0810783,0.00282192,
5.22043,6.4379,16.0717,92.4566,0.708453,0.136703,-0.0623216,0.689581,0.0291067,0.0288359,-0.0344697,2.80929,-9.37418,0.332116,-0.254887,0.42203,0.107929,23.78,99.012,0.025001,0.0389647,0.037991,-0.0431291,0.0696276,-0.234815,0.00790293,-0.114543,-0.139643,0.47128,0.0942978,0.0810783,-9.79092,0.0979953,0.0281404,-0.0712655,0.0942978,0.0810783,0.00282192,
5.24557,6.50999,16.162,92.5659,0.708914,0.137624,-0.0625862,0.6889,0.0325107,0.0174604,-0.0286234,2.8031,-9.39807,0.582031,-0.254874,0.423029,0.109023,23.76,99.019,0.025001,0.043138,0.0290472,-0.0355726,0.0710545,-0.234565,0.0128963,-0.113202,-0.141599,0.47216,0.0894479,-0.151548,-9.82287,0.0769635,-0.000818128,0.16091,0.0894479,-0.151548,-0.0291271,
5.27079,6.50999,16.162,92.5659,0.708914,0.137624,-0.0625862,0.6889,0.0325107,0.0174604,-0.0286234,2.8031,-9.39807,0.582031,-0.254874,0.423029,0.109023,23.76,99.019,0.025001,0.043138,0.0290472,-0.0355726,0.0710545,-0.234565,0.0128963,-0.113202,-0.141599,0.47216,0.0894479,-0.151548,-9.82287,0.0769635,-0.000818128,0.16091,0.0894479,-0.151548,-0.0291271,
5.29601,6.58997,16.2401,92.668,0.709335,0.138524,-0.0627195,0.688274,0.0206719,0.0348575,-0.0246807,2.90933,-9.36613,0.668758,-0.254856,0.425004,0.107902,23.76,99.008,0.025001,0.0296916,0.0488406,-0.0297288,0.072135,-0.234244,0.0155029,-0.11188,-0.141342,0.474055,0.193531,-0.211236,-9.82617,0.170375,0.026636,0.231061,0.193531,-0.211236,-0.0324287,
5.32125,6.58997,16.2401,92.668,0.709335,0.138524,-0.0627195,0.688274,0.0206719,0.0348575,-0.0246807,2.90933,-9.36613,0.668758,-0.254856,0.425004,0.107902,23.76,99.008,0.025001,0.0296916,0.0488406,-0.0297288,0.072135,-0.234244,0.0155029,-0.11188,-0.141342,0.474055,0.193531,-0.211236,-9.82617,0.170375,0.026636,0.231061,0.193531,-0.211236,-0.0324287,
5.34646,6.62892,16.2719,92.7138,0.709524,0.138928,-0.0627412,0.687996,0.0242872,0.0154272,-0.0204768,2.97943,-9.34893,0.634789,-0.256778,0.422079,0.107833,23.775,99.03,0.024999,0.0288503,0.0383541,-0.0239255,0.0738277,-0.233933,0.0169242,-0.114181,-0.141826,0.471765,0.255589,-0.163018,-9.82805,0.235258,0.041958,0.189659,0.255589,-0.163018,-0.0343065,
5.3717,6.67494,16.322,92.7947,0.709892,0.139464,-0.0628782,0.687495,0.0148365,0.030368,-0.0146832,2.89201,-9.38444,0.701848,-0.255827,0.423042,0.10677,23.78,99.012,0.024999,0.0222799,0.0353565,-0.0143974,0.0718161,-0.234259,0.016813,-0.112569,-0.141313,0.47241,0.159024,-0.226494,-9.84111,0.139626,0.00341045,0.243566,0.159024,-0.226494,-0.047368,
5.39696,6.67494,16.322,92.7947,0.709892,0.139464,-0.0628782,0.687495,0.0148365,0.030368,-0.0146832,2.89201,-9.38444,0.701848,-0.255827,0.423042,0.10677,23.78,99.012,0.024999,0.0222799,0.0353565,-0.0143974,0.0718161,-0.234259,0.016813,-0.112569,-0.141313,0.47241,0.159024,-0.226494,-9.84111,0.139626,0.00341045,0.243566,0.159024,-0.226494,-0.047368,
5.42245,6.74695,16.357,92.8525,0.710107,0.140085,-0.0627371,0.68716,0.00829032,0.0156619,-0.00866419,2.94106,-9.34507,0.710554,-0.256789,0.422063,0.104526,23.78,99.012,0.024999,0.0109256,0.0283439,-0.00737969,0.0732096,-0.233454,0.0180559,-0.113519,-0.139705,0.471804,0.211019,-0.221351,-9.81792,0.182932,0.040632,0.242888,0.211019,-0.221351,-0.0241766,
5.44792,6.74695,16.357,92.8525,0.710107,0.140085,-0.0627371,0.68716,0.00829032,0.0156619,-0.00866419,2.94106,-9.34507,0.710554,-0.256789,0.422063,0.104526,23.78,99.012,0.024999,0.0109256,0.0283439,-0.00737969,0.0732096,-0.233454,0.0180559,-0.113519,-0.139705,0.471804,0.211019,-0.221351,-9.81792,0.182932,0.040632,0.242888,0.211019,-0.221351,-0.0241766,
5.47317,6.80285,16.3681,92.8874,0.710234,0.140477,-0.0625143,0.686969,0.00265258,0.0157389,0.00275782,3.04067,-9.29755,0.722447,-0.255805,0.425998,0.103435,23.78,99.012,0.024999,0.00150624,0.0296321,0.00779211,0.0764121,-0.232607,0.0177853,-0.111336,-0.138928,0.475302,0.318339,-0.217008,-9.8012,0.280724,0.0873388,0.249105,0.318339,-0.217008,-0.00745678,
5.49854,6.81956,16.3611,92.8957,0.710272,0.140535,-0.0623806,0.68693,-0.00068169,0.00663605,0.006888,3.02146,-9.33784,0.772346,-0.259614,0.423119,0.10327,23.78,99.035,0.025001,-0.00222708,0.0189412,0.0164205,0.0756573,-0.233231,0.0196026,-0.115819,-0.139251,0.473592,0.294823,-0.266505,-9.83682,0.262653,0.0473084,0.297618,0.294823,-0.266505,-0.0430784,
5.52387,6.81956,16.3611,92.8957,0.710272,0.140535,-0.0623806,0.68693,-0.00068169,0.00663605,0.006888,3.02146,-9.33784,0.772346,-0.259614,0.423119,0.10327,23.78,99.035,0.025001,-0.00222708,0.0189412,0.0164205,0.0756573,-0.233231,0.0196026,-0.115819,-0.139251,0.473592,0.294823,-0.266505,-9.83682,0.262653,0.0473084,0.297618,0.294823,-0.266505,-0.0430784,
5.54923,6.80327,16.3291,92.8905,0.710301,0.140249,-0.0622705,0.686968,-0.00212307,-0.0158433,0.0165558,2.93162,-9.33025,0.722032,-0.255768,0.428976,0.104509,23.77,99.019,0.025001,-0.00678534,-0.012959,0.0298912,0.0747197,-0.233388,0.0180255,-0.11066,-0.140104,0.478001,0.21162,-0.227135,-9.80167,0.178061,0.0564867,0.248072,0.21162,-0.227135,-0.00792885,
5.5745,6.80327,16.3291,92.8905,0.710301,0.140249,-0.0622705,0.686968,-0.00212307,-0.0158433,0.0165558,2.93162,-9.33025,0.722032,-0.255768,0.428976,0.104509,23.77,99.019,0.025001,-0.00678534,-0.012959,0.0298912,0.0747197,-0.233388,0.0180255,-0.11066,-0.140104,0.478001,0.21162,-0.227135,-9.80167,0.178061,0.0564867,0.248072,0.21162,-0.227135,-0.00792885,
5.59974,6.74588,16.2784,92.8663,0.710289,0.139607,-0.0622652,0.687112,-0.00618331,-0.0104682,0.0223597,2.88466,-9.344,0.432858,-0.258638,0.427026,0.0977668,23.78,99.035,0.025001,-0.0106724,-0.0200237,0.0384277,0.0717338,-0.234173,0.0124126,-0.115213,-0.133456,0.477198,0.141941,0.0519756,-9.78755,0.139431,0.0453666,-0.0372578,0.141941,0.0519756,0.00619888,
5.62497,6.74588,16.2784,92.8663,0.710289,0.139607,-0.0622652,0.687112,-0.00618331,-0.0104682,0.0223597,2.88466,-9.344,0.432858,-0.258638,0.427026,0.0977668,23.78,99.035,0.025001,-0.0106724,-0.0200237,0.0384277,0.0717338,-0.234173,0.0124126,-0.115213,-0.133456,0.477198,0.141941,0.0519756,-9.78755,0.139431,0.0453666,-0.0372578,0.141941,0.0519756,0.00619888,
5.65021,6.74048,16.2143,92.8407,0.710222,0.13921,-0.0618629,0.687298,-0.0113229,2.69932e-05,0.0251262,2.77038,-9.39226,0.509807,-0.25669,0.430991,0.105545,23.77,99.023,0.025,-0.0178513,0.00367735,0.0432394,0.0692857,-0.234931,0.01346,-0.11198,-0.140893,0.479992,0.0386386,-0.0394413,-9.80542,0.0356611,0.000375844,0.0437389,0.0386386,-0.0394413,-0.0116787,
5.67548,6.74194,16.1804,92.8271,0.71018,0.139027,-0.0616244,0.6874,-0.012813,0.00451981,0.0248035,2.76195,-9.40514,0.536736,-0.25487,0.42499,0.104596,23.78,99.023,0.025,-0.0187114,0.00584192,0.0435583,0.0689787,-0.23521,0.0137066,-0.112317,-0.139581,0.473727,0.0357812,-0.0684725,-9.81667,0.0327951,-0.0107787,0.0728199,0.0357812,-0.0684725,-0.0229273,
5.7007,6.74194,16.1804,92.8271,0.71018,0.139027,-0.0616244,0.6874,-0.012813,0.00451981,0.0248035,2.76195,-9.40514,0.536736,-0.25487,0.42499,0.104596,23.78,99.023,0.025,-0.0187114,0.00584192,0.0435583,0.0689787,-0.23521,0.0137066,-0.112317,-0.139581,0.473727,0.0357812,-0.0684725,-9.81667,0.0327951,-0.0107787,0.0728199,0.0357812,-0.0684725,-0.0229273,
5.72595,6.73192,16.1106,92.7943,0.710082,0.138571,-0.061205,0.687631,-0.0118197,-0.00471693,0.0245827,2.69464,-9.43367,0.526995,-0.25677,0.425013,0.100089,23.78,99.023,0.024999,-0.0193041,-0.00538392,0.0439692,0.0671848,-0.235472,0.0129579,-0.115197,-0.135125,0.474401,-0.0249551,-0.0698778,-9.82484,-0.0230504,-0.0357385,0.0682942,-0.0249551,-0.0698778,-0.0310965,
5.75119,6.73192,16.1106,92.7943,0.710082,0.138571,-0.061205,0.687631,-0.0118197,-0.00471693,0.0245827,2.69464,-9.43367,0.526995,-0.25677,0.425013,0.100089,23.78,99.023,0.024999,-0.0193041,-0.00538392,0.0439692,0.0671848,-0.235472,0.0129579,-0.115197,-0.135125,0.474401,-0.0249551,-0.0698778,-9.82484,-0.0230504,-0.0357385,0.0682942,-0.0249551,-0.0698778,-0.0310965,
5.77645,6.70802,16.0438,92.7588,0.70998,0.138048,-0.0608849,0.68787,-0.0118348,-0.00413048,0.0230136,2.61162,-9.41069,0.480992,-0.253802,0.435882,0.106746,23.775,99.023,0.025,-0.0178551,-0.00773941,0.0418791,0.0655157,-0.235734,0.0125024,-0.10925,-0.141331,0.483625,-0.0904756,-0.0383145,-9.7777,-0.0950926,-0.00931299,0.0279644,-0.0904756,-0.0383145,0.0160475,
5.80169,6.70935,16.0126,92.7429,0.709921,0.13788,-0.0606617,0.687984,-0.0134447,0.00457127,0.0219642,2.64662,-9.43644,0.472516,-0.252955,0.426939,0.106879,23.76,99.019,0.025001,-0.020613,0.00546317,0.0390105,0.0661745,-0.235773,0.0123239,-0.111187,-0.141144,0.474765,-0.0595399,-0.0275517,-9.81172,-0.0549725,-0.0334646,0.0220334,-0.0595399,-0.0275517,-0.0179787,
5.82691,6.70935,16.0126,92.7429,0.709921,0.13788,-0.0606617,0.687984,-0.0134447,0.00457127,0.0219642,2.64662,-9.43644,0.472516,-0.252955,0.426939,0.106879,23.76,99.019,0.025001,-0.020613,0.00546317,0.0390105,0.0661745,-0.235773,0.0123239,-0.111187,-0.141144,0.474765,-0.0595399,-0.0275517,-9.81172,-0.0549725,-0.0334646,0.0220334,-0.0595399,-0.0275517,-0.0179787,
5.85214,6.72607,15.9525,92.7076,0.709763,0.137648,-0.0601409,0.688239,-0.0155569,0.0034207,0.0239354,2.74483,-9.44362,0.617586,-0.254863,0.425011,0.107904,23.78,99.023,0.025001,-0.026276,0.0135746,0.0394492,0.0687067,-0.235256,0.0138878,-0.113901,-0.14218,0.473333,0.0582497,-0.165096,-9.85226,0.0531101,-0.0375531,0.172749,0.0582497,-0.165096,-0.0585098,
5.87743,6.72607,15.9525,92.7076,0.709763,0.137648,-0.0601409,0.688239,-0.0155569,0.0034207,0.0239354,2.74483,-9.44362,0.617586,-0.254863,0.425011,0.107904,23.78,99.023,0.025001,-0.026276,0.0135746,0.0394492,0.0687067,-0.235256,0.0138878,-0.113901,-0.14218,0.473333,0.0582497,-0.165096,-9.85226,0.0531101,-0.0375531,0.172749,0.0582497,-0.165096,-0.0585098,
5.90266,6.67619,15.888,92.6644,0.709642,0.136981,-0.0599828,0.688511,-0.00923007,-0.0289922,0.0251026,2.7016,-9.38132,0.478746,-0.254865,0.425978,0.103485,23.76,99.019,0.025001,-0.0179254,-0.0323065,0.0441438,0.0681106,-0.235018,0.0123124,-0.114756,-0.137448,0.474406,0.0315856,-0.0387155,-9.77418,0.0204869,0.0281068,0.0408626,0.0315856,-0.0387155,0.0195684,
5.92791,6.67619,15.888,92.6644,0.709642,0.136981,-0.0599828,0.688511,-0.00923007,-0.0289922,0.0251026,2.7016,-9.38132,0.478746,-0.254865,0.425978,0.103485,23.76,99.019,0.025001,-0.0179254,-0.0323065,0.0441438,0.0681106,-0.235018,0.0123124,-0.114756,-0.137448,0.474406,0.0315856,-0.0387155,-9.77418,0.0204869,0.0281068,0.0408626,0.0315856,-0.0387155,0.0195684,
5.95953,6.62448,15.8206,92.6197,0.709517,0.136285,-0.0598163,0.688792,-0.0146515,-0.00242875,0.0203673,2.42598,-9.50031,0.43145,-0.254753,0.434938,0.110017,23.78,99.023,0.025001,-0.0227185,-0.0077847,0.0400797,0.0624759,-0.236937,0.0111458,-0.112196,-0.143684,0.482639,-0.257258,-0.0266242,-9.81125,-0.244044,-0.0873976,0.000764297,-0.257258,-0.0266242,-0.0174999,
5.98489,6.61349,15.7929,92.598,0.709433,0.136065,-0.0596825,0.688934,-0.0131815,-0.008112,0.0182444,2.4731,-9.4867,0.431855,-0.255816,0.424059,0.110071,23.78,99.012,0.024999,-0.0230218,-0.00668716,0.0348636,0.0620096,-0.237052,0.0107724,-0.116466,-0.143548,0.472454,-0.203314,-0.0249844,-9.81113,-0.192375,-0.0723384,0.00468599,-0.203314,-0.0249844,-0.0173836,
6.01015,6.61349,15.7929,92.598,0.709433,0.136065,-0.0596825,0.688934,-0.0131815,-0.008112,0.0182444,2.4731,-9.4867,0.431855,-0.255816,0.424059,0.110071,23.78,99.012,0.024999,-0.0230218,-0.00668716,0.0348636,0.0620096,-0.237052,0.0107724,-0.116466,-0.143548,0.472454,-0.203314,-0.0249844,-9.81113,-0.192375,-0.0723384,0.00468599,-0.203314,-0.0249844,-0.0173836,
6.03548,6.60764,15.7509,92.5563,0.70924,0.135802,-0.0594041,0.689208,-0.0150353,-0.000319647,0.00993074,2.49067,-9.4882,0.363193,-0.255759,0.429995,0.10781,23.78,99.023,0.024999,-0.0245805,0.00346236,0.0250481,0.0625804,-0.23706,0.0111966,-0.115383,-0.141095,0.478236,-0.186057,0.039197,-9.81453,-0.167898,-0.071575,-0.0572108,-0.186057,0.039197,-0.0207863,
6.06075,6.60764,15.7509,92.5563,0.70924,0.135802,-0.0594041,0.689208,-0.0150353,-0.000319647,0.00993074,2.49067,-9.4882,0.363193,-0.255759,0.429995,0.10781,23.78,99.023,0.024999,-0.0245805,0.00346236,0.0250481,0.0625804,-0.23706,0.0111966,-0.115383,-0.141095,0.478236,-0.186057,0.039197,-9.81453,-0.167898,-0.071575,-0.0572108,-0.186057,0.039197,-0.0207863,
6.08605,6.59577,15.7203,92.5183,0.709062,0.135567,-0.0592383,0.689451,-0.0138608,-0.00246517,0.00750143,2.55358,-9.46016,0.51225,-0.254857,0.426006,0.107896,23.775,99.035,0.024999,-0.021887,-0.00196549,0.0204093,0.0641458,-0.236502,0.0124101,-0.115897,-0.140754,0.474163,-0.0969485,-0.107936,-9.81106,-0.0999487,-0.0418489,0.0980192,-0.0969485,-0.107936,-0.0173101,
6.11134,6.56195,15.6966,92.4766,0.70888,0.135239,-0.0592437,0.689703,-0.00891435,-0.0293736,0.00667584,2.58186,-9.451,0.482375,-0.252914,0.430914,0.107946,23.78,99.012,0.024999,-0.0187621,-0.0253718,0.0190086,0.0655969,-0.236162,0.0123372,-0.11298,-0.140296,0.47839,-0.0656904,-0.0815752,-9.80862,-0.0677757,-0.0312914,0.074956,-0.0656904,-0.0815752,-0.0148783,
6.13666,6.56195,15.6966,92.4766,0.70888,0.135239,-0.0592437,0.689703,-0.00891435,-0.0293736,0.00667584,2.58186,-9.451,0.482375,-0.252914,0.430914,0.107946,23.78,99.012,0.024999,-0.0187621,-0.0253718,0.0190086,0.0655969,-0.236162,0.0123372,-0.11298,-0.140296,0.47839,-0.0656904,-0.0815752,-9.80862,-0.0677757,-0.0312914,0.074956,-0.0656904,-0.0815752,-0.0148783,
6.16191,6.51276,15.6873,92.4542,0.708814,0.134891,-0.0594548,0.68982,-0.00841811,-0.0294748,0.00383345,2.42587,-9.48638,0.461525,-0.256712,0.429034,0.108874,23.78,99.023,0.025001,-0.0138001,-0.0444893,0.0165903,0.0619908,-0.237178,0.0113788,-0.117235,-0.141356,0.477597,-0.224741,-0.0808931,-9.79961,-0.222222,-0.0660857,0.0577628,-0.224741,-0.0808931,-0.00586128,
6.18716,6.51276,15.6873,92.4542,0.708814,0.134891,-0.0594548,0.68982,-0.00841811,-0.0294748,0.00383345,2.42587,-9.48638,0.461525,-0.256712,0.429034,0.108874,23.78,99.023,0.025001,-0.0138001,-0.0444893,0.0165903,0.0619908,-0.237178,0.0113788,-0.117235,-0.141356,0.477597,-0.224741,-0.0808931,-9.79961,-0.222222,-0.0660857,0.0577628,-0.224741,-0.0808931,-0.00586128,
6.21243,6.48998,15.6857,92.407,0.708558,0.134766,-0.0595264,0.690101,-0.0185316,0.00300043,-0.00509249,2.45785,-9.50257,0.401268,-0.252029,0.424964,0.111359,23.78,99.023,0.025,-0.0285572,0.0037379,0.00291983,0.0604457,-0.237572,0.0115445,-0.113695,-0.142875,0.472413,-0.203563,-0.0249985,-9.82135,-0.189984,-0.0818707,0.00527275,-0.203563,-0.0249985,-0.0276012,
6.23774,6.5213,15.7088,92.361,0.708217,0.13512,-0.0594286,0.690391,-0.0184479,0.0132799,-0.0149824,2.32734,-9.53924,0.368174,-0.25297,0.425959,0.107993,23.785,99.028,0.025001,-0.0300725,0.0215229,-0.00968967,0.0593277,-0.237929,0.00877095,-0.114411,-0.139345,0.47391,-0.344851,-0.0141422,-9.81988,-0.324293,-0.11929,-0.0202178,-0.344851,-0.0141422,-0.0261335,
6.26302,6.5213,15.7088,92.361,0.708217,0.13512,-0.0594286,0.690391,-0.0184479,0.0132799,-0.0149824,2.32734,-9.53924,0.368174,-0.25297,0.425959,0.107993,23.785,99.028,0.025001,-0.0300725,0.0215229,-0.00968967,0.0593277,-0.237929,0.00877095,-0.114411,-0.139345,0.47391,-0.344851,-0.0141422,-9.81988,-0.324293,-0.11929,-0.0202178,-0.344851,-0.0141422,-0.0261335,
6.28828,6.5269,15.7561,92.317,0.707888,0.135458,-0.05964,0.690643,-0.0137284,-0.0154762,-0.0188624,2.66184,-9.42258,0.535964,-0.252978,0.424983,0.110208,23.78,99.023,0.025,-0.024823,-0.00571777,-0.0203293,0.0646282,-0.236252,0.0128095,-0.114067,-0.141181,0.473087,0.0169626,-0.153653,-9.80479,0.0024078,-0.00453292,0.154895,0.0169626,-0.153653,-0.0110397,
6.31357,6.5269,15.7561,92.317,0.707888,0.135458,-0.05964,0.690643,-0.0137284,-0.0154762,-0.0188624,2.66184,-9.42258,0.535964,-0.252978,0.424983,0.110208,23.78,99.023,0.025,-0.024823,-0.00571777,-0.0203293,0.0646282,-0.236252,0.0128095,-0.114067,-0.141181,0.473087,0.0169626,-0.153653,-9.80479,0.0024078,-0.00453292,0.154895,0.0169626,-0.153653,-0.0110397,
6.33889,6.48633,15.7844,92.292,0.707752,0.135388,-0.0600322,0.690763,-0.0107703,-0.0313784,-0.0185168,2.77493,-9.40895,0.484677,-0.252876,0.433918,0.11233,23.7675,99.017,0.025,-0.018472,-0.0375873,-0.0203071,0.0678813,-0.235315,0.0126256,-0.111173,-0.143069,0.481685,0.119175,-0.0951427,-9.82041,0.110856,0.00794906,0.107765,0.119175,-0.0951427,-0.026659,
6.36417,6.48633,15.7844,92.292,0.707752,0.135388,-0.0600322,0.690763,-0.0107703,-0.0313784,-0.0185168,2.77493,-9.40895,0.484677,-0.252876,0.433918,0.11233,23.7675,99.017,0.025,-0.018472,-0.0375873,-0.0203071,0.0678813,-0.235315,0.0126256,-0.111173,-0.143069,0.481685,0.119175,-0.0951427,-9.82041,0.110856,0.00794906,0.107765,0.119175,-0.0951427,-0.026659,
6.3895,6.42468,15.8367,92.238,0.707436,0.135346,-0.0606682,0.691039,-0.0159185,-0.0140645,-0.0185187,2.70084,-9.42304,0.415589,-0.253917,0.42502,0.112365,23.78,99.023,0.024999,-0.0250531,-0.0213655,-0.0178339,0.0676593,-0.235341,0.0105824,-0.114343,-0.142567,0.473647,0.0294775,-0.0442815,-9.81113,0.0281568,-0.00822456,0.0476593,0.0294775,-0.0442815,-0.0173807,
6.41476,6.38616,15.8842,92.1808,0.707079,0.135421,-0.0611303,0.691349,-0.0136081,-0.0217993,-0.0131399,2.89245,-9.37765,0.268822,-0.253932,0.424989,0.106853,23.78,99.023,0.025,-0.0251382,-0.0214155,-0.0134723,0.0715149,-0.234464,0.00822924,-0.11464,-0.136546,0.474055,0.203312,0.111523,-9.81453,0.211954,0.0353221,-0.0896259,0.203312,0.111523,-0.0207815,
6.44023,6.38616,15.8842,92.1808,0.707079,0.135421,-0.0611303,0.691349,-0.0136081,-0.0217993,-0.0131399,2.89245,-9.37765,0.268822,-0.253932,0.424989,0.106853,23.78,99.023,0.025,-0.0251382,-0.0214155,-0.0134723,0.0715149,-0.234464,0.00822924,-0.11464,-0.136546,0.474055,0.203312,0.111523,-9.81453,0.211954,0.0353221,-0.0896259,0.203312,0.111523,-0.0207815,
6.46549,6.35871,15.9026,92.1551,0.706935,0.135374,-0.0613806,0.691484,-0.0142232,-0.0104275,-0.0110755,2.76599,-9.40748,0.290647,-0.254875,0.424055,0.112327,23.78,99.012,0.025001,-0.0209117,-0.0239915,-0.00814462,0.0707812,-0.234459,0.00758257,-0.11517,-0.141822,0.473311,0.0737823,0.0719396,-9.80944,0.082486,0.00479119,-0.0635506,0.0737823,0.0719396,-0.0156984,
6.49074,6.35871,15.9026,92.1551,0.706935,0.135374,-0.0613806,0.691484,-0.0142232,-0.0104275,-0.0110755,2.76599,-9.40748,0.290647,-0.254875,0.424055,0.112327,23.78,99.012,0.025001,-0.0209117,-0.0239915,-0.00814462,0.0707812,-0.234459,0.00758257,-0.11517,-0.141822,0.473311,0.0737823,0.0719396,-9.80944,0.082486,0.00479119,-0.0635506,0.0737823,0.0719396,-0.0156984,
6.51602,6.35632,15.929,92.1098,0.706632,0.135541,-0.0615071,0.691749,-0.0135544,0.00225649,-0.00791369,2.76521,-9.41596,0.252191,-0.255823,0.424073,0.111177,23.78,99.012,0.025001,-0.0234621,0.00171371,-0.00387018,0.0687901,-0.235257,0.00674381,-0.115984,-0.140417,0.473787,0.0631262,0.102245,-9.8161,0.0773497,-0.00465565,-0.0945205,0.0631262,0.102245,-0.022356,
6.54136,6.35676,15.9464,92.0849,0.70646,0.13566,-0.0615836,0.691894,-0.0026268,0.011831,-0.00685948,2.67386,-9.4122,-0.0568517,-0.257749,0.4221,0.104483,23.785,99.017,0.025001,-0.00721931,0.00521655,0.000505894,0.0677276,-0.235358,-0.00282481,-0.118907,-0.133757,0.472747,-0.0567632,0.395373,-9.77664,-0.016851,-0.00156151,-0.399435,-0.0567632,0.395373,0.0171013,
6.5666,6.35676,15.9464,92.0849,0.70646,0.13566,-0.0615836,0.691894,-0.0026268,0.011831,-0.00685948,2.67386,-9.4122,-0.0568517,-0.257749,0.4221,0.104483,23.785,99.017,0.025001,-0.00721931,0.00521655,0.000505894,0.0677276,-0.235358,-0.00282481,-0.118907,-0.133757,0.472747,-0.0567632,0.395373,-9.77664,-0.016851,-0.00156151,-0.399435,-0.0567632,0.395373,0.0171013,
6.59203,6.34247,15.966,92.0922,0.706498,0.135685,-0.0618015,0.691832,0.0131804,-0.0235177,-0.00461052,2.79725,-9.37292,0.350099,-0.255822,0.424072,0.111176,23.79,99.017,0.025001,0.0107452,-0.0296219,-0.0010365,0.0676798,-0.235497,0.0105429,-0.115717,-0.140226,0.473908,0.109544,0.00444359,-9.78707,0.10331,0.0367533,0.00634749,0.109544,0.00444359,0.00667191,
6.61744,6.34247,15.966,92.0922,0.706498,0.135685,-0.0618015,0.691832,0.0131804,-0.0235177,-0.00461052,2.79725,-9.37292,0.350099,-0.255822,0.424072,0.111176,23.79,99.017,0.025001,0.0107452,-0.0296219,-0.0010365,0.0676798,-0.235497,0.0105429,-0.115717,-0.140226,0.473908,0.109544,0.00444359,-9.78707,0.10331,0.0367533,0.00634749,0.109544,0.00444359,0.00667191,
6.64273,6.34271,15.9743,92.0955,0.706507,0.135734,-0.0618559,0.691808,-0.00524308,0.0102843,-0.00289434,2.96424,-9.36828,0.47649,-0.254777,0.433949,0.108926,23.78,99.023,0.024999,-0.000862682,0.00271105,0.000181326,0.0704104,-0.234355,0.0159316,-0.112135,-0.137953,0.4832,0.281615,-0.103145,-9.83303,0.26894,0.0409869,0.132214,0.281615,-0.103145,-0.0392838,
6.66807,6.34271,15.9743,92.0955,0.706507,0.135734,-0.0618559,0.691808,-0.00524308,0.0102843,-0.00289434,2.96424,-9.36828,0.47649,-0.254777,0.433949,0.108926,23.78,99.023,0.024999,-0.000862682,0.00271105,0.000181326,0.0704104,-0.234355,0.0159316,-0.112135,-0.137953,0.4832,0.281615,-0.103145,-9.83303,0.26894,0.0409869,0.132214,0.281615,-0.103145,-0.0392838,
6.69329,6.36906,15.9806,92.0889,0.706429,0.135937,-0.0617281,0.691859,-0.0095685,0.0124473,0.000626471,2.75091,-9.41976,0.500337,-0.254866,0.425048,0.112319,23.78,99.035,0.025,-0.014357,0.0176075,0.00714597,0.0699167,-0.234931,0.0120597,-0.114234,-0.141281,0.474582,0.0650237,-0.150363,-9.8246,0.0545854,-0.0107465,0.157144,0.0650237,-0.150363,-0.030859,
6.7185,6.38424,15.9761,92.0729,0.70632,0.136013,-0.0615893,0.691968,-0.00680482,-0.00375406,0.00453821,2.85522,-9.38787,0.447311,-0.254866,0.426022,0.109002,23.78,99.012,0.024999,-0.0126682,0.00531513,0.0123949,0.0696536,-0.234991,0.0108845,-0.114301,-0.137905,0.475657,0.169261,-0.0891888,-9.82079,0.159624,0.0214437,0.106751,0.169261,-0.0891888,-0.0270443,
6.7437,6.38424,15.9761,92.0729,0.70632,0.136013,-0.0615893,0.691968,-0.00680482,-0.00375406,0.00453821,2.85522,-9.38787,0.447311,-0.254866,0.426022,0.109002,23.78,99.012,0.024999,-0.0126682,0.00531513,0.0123949,0.0696536,-0.234991,0.0108845,-0.114301,-0.137905,0.475657,0.169261,-0.0891888,-9.82079,0.159624,0.0214437,0.106751,0.169261,-0.0891888,-0.0270443,
6.76892,6.33821,15.9555,92.0426,0.706216,0.135623,-0.0617024,0.69214,-0.0104796,-0.0243678,0.0129712,3.00147,-9.33699,0.596702,-0.256731,0.427093,0.11441,23.7875,99.028,0.025,-0.0170389,-0.0247422,0.0244308,0.0755252,-0.233295,0.0163669,-0.115531,-0.143189,0.477031,0.34215,-0.227147,-9.8171,0.309268,0.073479,0.261077,0.34215,-0.227147,-0.0233583,
6.79411,6.33821,15.9555,92.0426,0.706216,0.135623,-0.0617024,0.69214,-0.0104796,-0.0243678,0.0129712,3.00147,-9.33699,0.596702,-0.256731,0.427093,0.11441,23.7875,99.028,0.025,-0.0170389,-0.0247422,0.0244308,0.0755252,-0.233295,0.0163669,-0.115531,-0.143189,0.477031,0.34215,-0.227147,-9.8171,0.309268,0.073479,0.261077,0.34215,-0.227147,-0.0233583,
6.81937,6.30065,15.9334,92.018,0.706138,0.135273,-0.0617623,0.692283,-0.0136452,-0.0220827,0.0204748,2.97767,-9.34478,0.473411,-0.253943,0.423058,0.114593,23.79,99.017,0.025,-0.0197658,-0.0326599,0.0335995,0.0750472,-0.233401,0.0136473,-0.114245,-0.142819,0.472385,0.308983,-0.110823,-9.81365,0.289088,0.0668614,0.141796,0.308983,-0.110823,-0.0199089,
6.84499,6.28321,15.8703,91.9688,0.705937,0.134817,-0.0614149,0.692608,-0.0167852,0.00264681,0.0270021,2.77596,-9.41265,0.320698,-0.254801,0.431012,0.11447,23.785,99.012,0.025,-0.0276752,0.0054045,0.0452563,0.07061,-0.234817,0.00747993,-0.113457,-0.142482,0.480234,0.0937878,0.013205,-9.81824,0.0977583,0.00223186,-0.00293965,0.0937878,0.013205,-0.0244904,
6.87026,6.28321,15.8703,91.9688,0.705937,0.134817,-0.0614149,0.692608,-0.0167852,0.00264681,0.0270021,2.77596,-9.41265,0.320698,-0.254801,0.431012,0.11447,23.785,99.012,0.025,-0.0276752,0.0054045,0.0452563,0.07061,-0.234817,0.00747993,-0.113457,-0.142482,0.480234,0.0937878,0.013205,-9.81824,0.0977583,0.00223186,-0.00293965,0.0937878,0.013205,-0.0244904,
6.89559,6.26467,15.7952,91.9236,0.705775,0.13428,-0.0610046,0.692913,-0.0125621,-0.00789479,0.0269054,2.60374,-9.44788,0.331494,-0.253922,0.425041,0.114574,23.79,99.017,0.025,-0.0215337,-0.0106083,0.0476946,0.0661127,-0.235902,0.00730138,-0.114923,-0.142166,0.474178,-0.0659181,-0.0214965,-9.80546,-0.0621202,-0.0292488,0.0151654,-0.0659181,-0.0214965,-0.0117092,
6.92087,6.26467,15.7952,91.9236,0.705775,0.13428,-0.0610046,0.692913,-0.0125621,-0.00789479,0.0269054,2.60374,-9.44788,0.331494,-0.253922,0.425041,0.114574,23.79,99.017,0.025,-0.0215337,-0.0106083,0.0476946,0.0661127,-0.235902,0.00730138,-0.114923,-0.142166,0.474178,-0.0659181,-0.0214965,-9.80546,-0.0621202,-0.0292488,0.0151654,-0.0659181,-0.0214965,-0.0117092,
6.94609,6.25248,15.723,91.8828,0.705629,0.133796,-0.0605792,0.693193,-0.0146033,-0.000992653,0.0251162,2.61003,-9.44548,0.291228,-0.252009,0.426982,0.115755,23.78,99.023,0.025,-0.0233502,0.000565556,0.0443553,0.064531,-0.236329,0.00788543,-0.113077,-0.142886,0.475414,-0.0502408,0.013879,-9.80364,-0.043936,-0.0232726,-0.0185136,-0.0502408,0.013879,-0.00989819,
6.97131,6.25248,15.723,91.8828,0.705629,0.133796,-0.0605792,0.693193,-0.0146033,-0.000992653,0.0251162,2.61003,-9.44548,0.291228,-0.252009,0.426982,0.115755,23.78,99.023,0.025,-0.0233502,0.000565556,0.0443553,0.064531,-0.236329,0.00788543,-0.113077,-0.142886,0.475414,-0.0502408,0.013879,-9.80364,-0.043936,-0.0232726,-0.0185136,-0.0502408,0.013879,-0.00989819,
6.99656,6.24952,15.6878,91.8626,0.705551,0.133579,-0.0603539,0.693333,-0.0127021,-0.00461581,0.0260146,2.68491,-9.44771,0.32807,-0.253952,0.42304,0.111285,23.79,99.028,0.025001,-0.0229905,0.00125505,0.0448713,0.0667739,-0.236089,0.00753007,-0.116758,-0.13851,0.472252,0.0308355,-0.0175655,-9.82722,0.0367205,-0.0237654,0.0216016,0.0308355,-0.0175655,-0.033473,
7.02185,6.19857,15.6167,91.825,0.705467,0.132862,-0.0601744,0.693573,-0.0111258,-0.0122455,0.0268167,2.64618,-9.45609,0.420885,-0.253008,0.423016,0.111333,23.7825,99.028,0.024999,-0.0163891,-0.0227296,0.0458499,0.0661215,-0.236022,0.0094339,-0.116569,-0.138143,0.471889,0.0134914,-0.118763,-9.82765,0.0096941,-0.02867,0.1205,0.0134914,-0.118763,-0.0339031,
7.04723,6.19857,15.6167,91.825,0.705467,0.132862,-0.0601744,0.693573,-0.0111258,-0.0122455,0.0268167,2.64618,-9.45609,0.420885,-0.253008,0.423016,0.111333,23.7825,99.028,0.024999,-0.0163891,-0.0227296,0.0458499,0.0661215,-0.236022,0.0094339,-0.116569,-0.138143,0.471889,0.0134914,-0.118763,-9.82765,0.0096941,-0.02867,0.1205,0.0134914,-0.118763,-0.0339031,
7.07245,6.23602,15.5409,91.7802,0.705241,0.132664,-0.0594225,0.693905,-0.0286497,0.0327593,0.0217708,2.06548,-9.68093,0.310924,-0.250124,0.427895,0.110329,23.79,99.017,0.025001,-0.0411377,0.0431393,0.0460084,0.0632707,-0.237397,0.010508,-0.113132,-0.136666,0.475765,-0.600483,-0.0757079,-9.88519,-0.558529,-0.249804,0.0178016,-0.600483,-0.0757079,-0.0914431,
7.09783,6.23602,15.5409,91.7802,0.705241,0.132664,-0.0594225,0.693905,-0.0286497,0.0327593,0.0217708,2.06548,-9.68093,0.310924,-0.250124,0.427895,0.110329,23.79,99.017,0.025001,-0.0411377,0.0431393,0.0460084,0.0632707,-0.237397,0.010508,-0.113132,-0.136666,0.475765,-0.600483,-0.0757079,-9.88519,-0.558529,-0.249804,0.0178016,-0.600483,-0.0757079,-0.0914431,
7.12304,6.22139,15.5147,91.7565,0.705145,0.13243,-0.0593198,0.694056,-0.0160031,-0.00496815,0.0229263,2.03634,-9.62222,0.233945,-0.252904,0.431957,0.114558,23.79,99.028,0.025,-0.0239569,-0.0105919,0.0340064,0.056084,-0.238467,0.00666308,-0.114536,-0.140987,0.480286,-0.615381,-0.00562045,-9.81885,-0.583337,-0.189774,-0.0553109,-0.615381,-0.00562045,-0.0251055,
7.14828,6.18378,15.4707,91.7229,0.705037,0.131953,-0.0592345,0.694264,0.012182,-0.0747991,0.01577,2.96927,-9.41856,0.105267,-0.249194,0.425909,0.113704,23.79,99.017,0.025001,0.00211271,-0.0583365,0.0325303,0.0709158,-0.235263,0.000829819,-0.113155,-0.139459,0.473468,0.328411,0.214587,-9.86828,0.35683,0.0160633,-0.178527,0.328411,0.214587,-0.0745354,
7.17355,6.18378,15.4707,91.7229,0.705037,0.131953,-0.0592345,0.694264,0.012182,-0.0747991,0.01577,2.96927,-9.41856,0.105267,-0.249194,0.425909,0.113704,23.79,99.017,0.025001,0.00211271,-0.0583365,0.0325303,0.0709158,-0.235263,0.000829819,-0.113155,-0.139459,0.473468,0.328411,0.214587,-9.86828,0.35683,0.0160633,-0.178527,0.328411,0.214587,-0.0745354,
7.19877,6.04371,15.4254,91.712,0.705184,0.130826,-0.0597877,0.694281,0.0175872,-0.0474129,0.01586,2.6206,-9.4864,-0.201898,-0.250122,0.427902,0.111432,23.79,99.028,0.025001,0.0124449,-0.0552992,0.0318065,0.0655128,-0.236152,-0.0023111,-0.114448,-0.136978,0.475623,-0.0454137,0.48313,-9.83182,0.0156265,-0.0496617,-0.483959,-0.0454137,0.48313,-0.0380697,
7.224,6.04371,15.4254,91.712,0.705184,0.130826,-0.0597877,0.694281,0.0175872,-0.0474129,0.01586,2.6206,-9.4864,-0.201898,-0.250122,0.427902,0.111432,23.79,99.028,0.025001,0.0124449,-0.0552992,0.0318065,0.0655128,-0.236152,-0.0023111,-0.114448,-0.136978,0.475623,-0.0454137,0.48313,-9.83182,0.0156265,-0.0496617,-0.483959,-0.0454137,0.48313,-0.0380697,
7.24923,5.89295,15.4062,91.756,0.705644,0.129761,-0.0606309,0.69394,0.0558187,-0.130338,-0.00281214,2.26915,-9.60882,-0.3158,-0.250025,0.435857,0.115768,23.79,99.017,0.025001,0.0501524,-0.0965183,0.0175747,0.0546695,-0.239663,-0.00419658,-0.112329,-0.141349,0.483,-0.422018,0.569772,-9.85269,-0.332649,-0.171426,-0.605121,-0.422018,0.569772,-0.0589409,
7.27461,5.89295,15.4062,91.756,0.705644,0.129761,-0.0606309,0.69394,0.0558187,-0.130338,-0.00281214,2.26915,-9.60882,-0.3158,-0.250025,0.435857,0.115768,23.79,99.017,0.025001,0.0501524,-0.0965183,0.0175747,0.0546695,-0.239663,-0.00419658,-0.112329,-0.141349,0.483,-0.422018,0.569772,-9.85269,-0.332649,-0.171426,-0.605121,-0.422018,0.569772,-0.0589409,
7.29985,5.56424,15.4123,91.7951,0.706243,0.127751,-0.0627034,0.693519,0.112862,-0.269872,0.0114532,3.13135,-9.29346,-0.453571,-0.250119,0.426942,0.116955,23.79,99.028,0.024999,0.123922,-0.313892,0.0117188,0.0720729,-0.234129,0.000312278,-0.11545,-0.142135,0.474327,0.479069,0.79466,-9.77336,0.528528,0.143446,-0.749325,0.479069,0.79466,0.0203848,
7.32508,3.85777,15.3977,91.8968,0.708697,0.117068,-0.0730367,0.691889,0.279251,-0.881032,0.0380637,3.14905,-9.28602,0.949914,-0.246302,0.429841,0.120428,23.7875,99.012,0.025,0.34379,-1.07257,0.0544008,0.08873,-0.228824,0.0164863,-0.115114,-0.142658,0.47574,0.605339,-0.602669,-9.81425,0.548641,0.151011,0.637381,0.605339,-0.602669,-0.020503,
7.3504,3.85777,15.3977,91.8968,0.708697,0.117068,-0.0730367,0.691889,0.279251,-0.881032,0.0380637,3.14905,-9.28602,0.949914,-0.246302,0.429841,0.120428,23.7875,99.012,0.025,0.34379,-1.07257,0.0544008,0.08873,-0.228824,0.0164863,-0.115114,-0.142658,0.47574,0.605339,-0.602669,-9.81425,0.548641,0.151011,0.637381,0.605339,-0.602669,-0.020503,
7.37565,1.18746,15.3683,91.9657,0.711673,0.100293,-0.0890154,0.689593,0.235714,-0.794913,0.0387968,2.49059,-9.48131,0.581401,-0.239678,0.429706,0.12628,23.79,99.017,0.024999,0.361229,-1.21956,0.0656772,0.061198,-0.237215,0.0161915,-0.115494,-0.14337,0.47344,-0.109701,-0.25816,-9.81619,-0.104967,-0.043319,0.257469,-0.109701,-0.25816,-0.0224428,
7.40089,1.18746,15.3683,91.9657,0.711673,0.100293,-0.0890154,0.689593,0.235714,-0.794913,0.0387968,2.49059,-9.48131,0.581401,-0.239678,0.429706,0.12628,23.79,99.017,0.024999,0.361229,-1.21956,0.0656772,0.061198,-0.237215,0.0161915,-0.115494,-0.14337,0.47344,-0.109701,-0.25816,-9.81619,-0.104967,-0.043319,0.257469,-0.109701,-0.25816,-0.0224428,
7.42612,-1.55702,15.3505,92.0211,0.714217,0.0830633,-0.105434,0.686934,0.338553,-1.15095,0.0412825,2.5959,-9.43608,0.657028,-0.233938,0.435539,0.130926,23.79,99.017,0.025,0.435275,-1.48069,0.0665935,0.0682887,-0.235452,0.0124183,-0.11552,-0.143119,0.477216,-0.00804199,-0.323732,-9.80332,0.003264,0.00239724,0.323948,-0.00804199,-0.323732,-0.00957108,
7.45139,-3.49721,15.3598,92.0501,0.715688,0.0709853,-0.117124,0.684861,0.402346,-1.39824,0.0387747,2.29115,-9.54279,0.750451,-0.230136,0.435501,0.141044,23.79,99.017,0.025,0.538455,-1.86733,0.0657994,0.061044,-0.237286,0.0186682,-0.117319,-0.149655,0.47577,-0.348187,-0.388079,-9.82881,-0.30301,-0.104906,0.412613,-0.348187,-0.388079,-0.0350666,
7.47679,-3.49721,15.3598,92.0501,0.715688,0.0709853,-0.117124,0.684861,0.402346,-1.39824,0.0387747,2.29115,-9.54279,0.750451,-0.230136,0.435501,0.141044,23.79,99.017,0.025,0.538455,-1.86733,0.0657994,0.061044,-0.237286,0.0186682,-0.117319,-0.149655,0.47577,-0.348187,-0.388079,-9.82881,-0.30301,-0.104906,0.412613,-0.348187,-0.388079,-0.0350666,
7.50206,-7.48601,15.4146,92.0677,0.717805,0.0463447,-0.141232,0.680193,0.331193,-1.22932,0.0193543,2.3567,-9.48173,0.6735,-0.220626,0.439278,0.150311,23.79,99.005,0.024999,0.494736,-1.8237,0.0423673,0.0526178,-0.239319,0.0219447,-0.118251,-0.151951,0.476616,-0.294106,-0.295154,-9.78454,-0.246485,-0.0464372,0.332848,-0.294106,-0.295154,0.00920105,
7.5273,-7.48601,15.4146,92.0677,0.717805,0.0463447,-0.141232,0.680193,0.331193,-1.22932,0.0193543,2.3567,-9.48173,0.6735,-0.220626,0.439278,0.150311,23.79,99.005,0.024999,0.494736,-1.8237,0.0423673,0.0526178,-0.239319,0.0219447,-0.118251,-0.151951,0.476616,-0.294106,-0.295154,-9.78454,-0.246485,-0.0464372,0.332848,-0.294106,-0.295154,0.00920105,
7.55254,-11.1389,15.4732,92.0572,0.71884,0.0238129,-0.163196,0.675329,0.341622,-1.22854,0.0258872,2.81164,-9.41128,0.25602,-0.212992,0.445067,0.156155,23.79,99.028,0.025001,0.485804,-1.764,0.0448637,0.0699759,-0.234997,0.00308996,-0.119681,-0.151769,0.480081,0.210203,0.0421658,-9.82329,0.1988,0.0214153,-0.0828024,0.210203,0.0421658,-0.0295467,
7.57777,-11.1389,15.4732,92.0572,0.71884,0.0238129,-0.163196,0.675329,0.341622,-1.22854,0.0258872,2.81164,-9.41128,0.25602,-0.212992,0.445067,0.156155,23.79,99.028,0.025001,0.485804,-1.764,0.0448637,0.0699759,-0.234997,0.00308996,-0.119681,-0.151769,0.480081,0.210203,0.0421658,-9.82329,0.1988,0.0214153,-0.0828024,0.210203,0.0421658,-0.0295467,
7.60299,-14.5132,15.5198,92.0464,0.719163,0.00293846,-0.183291,0.670224,0.259612,-0.995997,0.0193402,2.23324,-9.51291,0.813055,-0.201694,0.440826,0.158976,23.79,99.017,0.025,0.405631,-1.52609,0.0398494,0.0546625,-0.239216,0.0246725,-0.119253,-0.149502,0.472979,-0.50545,-0.357579,-9.78573,-0.387282,-0.0822776,0.476077,-0.50545,-0.357579,0.00801754,
7.62822,-15.7593,15.5382,92.0219,0.719009,-0.00472923,-0.190681,0.668315,0.172116,-0.711998,0.011625,1.95859,-9.63719,1.0074,-0.197774,0.452658,0.164571,23.79,99.017,0.025001,0.303627,-1.19812,0.0317171,0.0534806,-0.239973,0.0221921,-0.117259,-0.154395,0.483229,-0.857206,-0.450902,-9.8381,-0.664964,-0.207256,0.6745,-0.857206,-0.450902,-0.0443525,
7.65345,-15.7593,15.5382,92.0219,0.719009,-0.00472923,-0.190681,0.668315,0.172116,-0.711998,0.011625,1.95859,-9.63719,1.0074,-0.197774,0.452658,0.164571,23.79,99.017,0.025001,0.303627,-1.19812,0.0317171,0.0534806,-0.239973,0.0221921,-0.117259,-0.154395,0.483229,-0.857206,-0.450902,-9.8381,-0.664964,-0.207256,0.6745,-0.857206,-0.450902,-0.0443525,
7.67864,-16.7542,15.5509,91.928,0.718395,-0.0107336,-0.196561,0.667201,-0.0160818,-0.0923514,8.96757e-05,2.57579,-9.49068,0.585496,-0.194991,0.446671,0.170286,23.79,99.017,0.024999,0.0187056,-0.263553,0.0145787,0.0590551,-0.238222,0.0192053,-0.12014,-0.157261,0.476833,-0.140542,-0.235335,-9.84761,-0.0498533,-0.0608004,0.268056,-0.140542,-0.235335,-0.0538645,
7.70388,-16.7542,15.5509,91.928,0.718395,-0.0107336,-0.196561,0.667201,-0.0160818,-0.0923514,8.96757e-05,2.57579,-9.49068,0.585496,-0.194991,0.446671,0.170286,23.79,99.017,0.024999,0.0187056,-0.263553,0.0145787,0.0590551,-0.238222,0.0192053,-0.12014,-0.157261,0.476833,-0.140542,-0.235335,-9.84761,-0.0498533,-0.0608004,0.268056,-0.140542,-0.235335,-0.0538645,
7.72911,-17.0562,15.5573,91.815,0.717706,-0.0123922,-0.19837,0.667378,0.0465661,-0.265413,0.00100994,2.71301,-9.46843,-0.292255,-0.196935,0.441764,0.170236,23.79,99.028,0.024999,0.00919695,-0.238165,0.00751658,0.0658794,-0.236006,-0.00646692,-0.123555,-0.154707,0.472989,0.248133,0.543102,-9.83568,0.0863145,-0.0382368,-0.591081,0.248133,0.543102,-0.0419321,
7.75435,-17.6849,15.5735,91.7705,0.717371,-0.0161529,-0.202133,0.666529,0.119839,-0.545344,0.00349,2.82095,-9.37494,0.215209,-0.19691,0.444717,0.1669,23.8,99.017,0.025001,0.120738,-0.603114,0.010413,0.0680541,-0.235473,0.0075132,-0.123188,-0.150238,0.476084,0.213061,0.0103154,-9.79021,0.191571,0.0547344,-0.0762796,0.213061,0.0103154,0.00353813,
7.77961,-17.6849,15.5735,91.7705,0.717371,-0.0161529,-0.202133,0.666529,0.119839,-0.545344,0.00349,2.82095,-9.37494,0.215209,-0.19691,0.444717,0.1669,23.8,99.017,0.025001,0.120738,-0.603114,0.010413,0.0680541,-0.235473,0.0075132,-0.123188,-0.150238,0.476084,0.213061,0.0103154,-9.79021,0.191571,0.0547344,-0.0762796,0.213061,0.0103154,0.00353813,
7.80483,-19.9659,15.6225,91.6918,0.716462,-0.0299824,-0.215672,0.662774,0.188284,-0.782611,0.00458948,2.43973,-9.51695,0.472981,-0.188354,0.447535,0.177231,23.81,99.01,0.025001,0.278197,-1.15785,0.0165076,0.0616507,-0.237452,0.0103446,-0.123593,-0.157639,0.476498,-0.268455,-0.106544,-9.83183,-0.197706,-0.0891232,0.194523,-0.268455,-0.106544,-0.0380821,
7.8301,-19.9659,15.6225,91.6918,0.716462,-0.0299824,-0.215672,0.662774,0.188284,-0.782611,0.00458948,2.43973,-9.51695,0.472981,-0.188354,0.447535,0.177231,23.81,99.01,0.025001,0.278197,-1.15785,0.0165076,0.0616507,-0.237452,0.0103446,-0.123593,-0.157639,0.476498,-0.268455,-0.106544,-9.83183,-0.197706,-0.0891232,0.194523,-0.268455,-0.106544,-0.0380821,
7.85534,-21.7776,15.6605,91.5783,0.715256,-0.0408506,-0.226389,0.659915,0.080451,-0.473875,0.00318095,2.79894,-9.41695,0.952525,-0.182698,0.448333,0.168691,23.79,99.017,0.025001,0.141565,-0.74914,0.0152129,0.0702346,-0.23508,0.0243516,-0.119327,-0.14721,0.476369,-0.120578,-0.697868,-9.84474,0.15525,0.00965037,0.692794,-0.120578,-0.697868,-0.050992,
7.88059,-21.7776,15.6605,91.5783,0.715256,-0.0408506,-0.226389,0.659915,0.080451,-0.473875,0.00318095,2.79894,-9.41695,0.952525,-0.182698,0.448333,0.168691,23.79,99.017,0.025001,0.141565,-0.74914,0.0152129,0.0702346,-0.23508,0.0243516,-0.119327,-0.14721,0.476369,-0.120578,-0.697868,-9.84474,0.15525,0.00965037,0.692794,-0.120578,-0.697868,-0.050992,
7.90583,-23.3943,15.6782,91.4147,0.713678,-0.050493,-0.235853,0.657638,0.139938,-0.719334,0.0128857,2.75167,-9.40273,0.0443969,-0.183579,0.450452,0.187372,23.79,99.005,0.025001,0.154939,-0.875446,0.0210023,0.0653944,-0.236012,0.00824106,-0.13047,-0.159766,0.478716,0.174437,0.129117,-9.79479,0.105064,0.0237579,-0.188408,0.174437,0.129117,-0.00104618,
7.93209,-24.8717,15.6935,91.3333,0.712509,-0.0594233,-0.244445,0.655017,0.283115,-1.20081,0.0115979,2.70254,-9.40496,-0.0716436,-0.175057,0.453186,0.183368,23.79,99.028,0.024999,0.314192,-1.4196,0.0268421,0.0667453,-0.23575,-0.00122562,-0.124301,-0.156058,0.479418,0.175669,0.238712,-9.78133,0.0534188,0.0211426,-0.291027,0.175669,0.238712,0.0124187,
7.95746,-24.8717,15.6935,91.3333,0.712509,-0.0594233,-0.244445,0.655017,0.283115,-1.20081,0.0115979,2.70254,-9.40496,-0.0716436,-0.175057,0.453186,0.183368,23.79,99.028,0.024999,0.314192,-1.4196,0.0268421,0.0667453,-0.23575,-0.00122562,-0.124301,-0.156058,0.479418,0.175669,0.238712,-9.78133,0.0534188,0.0211426,-0.291027,0.175669,0.238712,0.0124187,
7.98276,-29.597,15.7349,91.1998,0.708732,-0.0881779,-0.271581,0.64511,0.412302,-1.57053,0.0248943,2.51809,-9.43772,-1.49199,-0.15992,0.452861,0.194065,23.79,99.005,0.024999,0.619209,-2.40404,0.0426315,0.0684613,-0.234671,-0.0316616,-0.128549,-0.161026,0.475252,0.724218,1.5314,-9.73487,-0.137852,-0.0130507,-1.68937,0.724218,1.5314,0.0588722,
8.00815,-29.597,15.7349,91.1998,0.708732,-0.0881779,-0.271581,0.64511,0.412302,-1.57053,0.0248943,2.51809,-9.43772,-1.49199,-0.15992,0.452861,0.194065,23.79,99.005,0.024999,0.619209,-2.40404,0.0426315,0.0684613,-0.234671,-0.0316616,-0.128549,-0.161026,0.475252,0.724218,1.5314,-9.73487,-0.137852,-0.0130507,-1.68937,0.724218,1.5314,0.0588722,
8.03342,-32.4499,15.71,91.2232,0.706426,-0.106003,-0.287392,0.638068,0.222719,-0.721805,0.0345525,3.34077,-9.25321,0.731635,-0.151282,0.46456,0.197696,23.805,99.028,0.024999,0.331133,-1.05787,0.0545473,0.0777135,-0.233052,0.00484373,-0.129106,-0.163883,0.484004,0.309984,-0.82984,-9.82513,0.688937,0.172539,0.530382,0.309984,-0.82984,-0.0313854,
8.05883,-35.6626,15.6255,91.2633,0.703309,-0.12638,-0.304646,0.629742,0.388911,-1.3322,0.0649461,2.96867,-9.35039,0.395666,-0.140945,0.459341,0.198274,23.79,99.028,0.024999,0.520696,-1.79486,0.0956242,0.0814584,-0.231218,0.0104017,-0.132214,-0.161571,0.476011,0.164751,-0.351375,-9.81065,0.330745,0.0791115,0.187729,0.164751,-0.351375,-0.016902,
8.08413,-35.6626,15.6255,91.2633,0.703309,-0.12638,-0.304646,0.629742,0.388911,-1.3322,0.0649461,2.96867,-9.35039,0.395666,-0.140945,0.459341,0.198274,23.79,99.028,0.024999,0.520696,-1.79486,0.0956242,0.0814584,-0.231218,0.0104017,-0.132214,-0.161571,0.476011,0.164751,-0.351375,-9.81065,0.330745,0.0791115,0.187729,0.164751,-0.351375,-0.016902,
8.1094,-37.6105,15.5726,91.2849,0.701117,-0.138693,-0.314985,0.624487,0.369125,-1.26815,0.064867,2.02698,-9.5965,0.529199,-0.137054,0.470137,0.196159,23.79,99.028,0.025001,0.542123,-1.87153,0.103188,0.0602233,-0.237649,0.0126804,-0.131682,-0.159419,0.485321,-0.687633,0.133541,-9.79749,-0.602233,-0.164642,0.31764,-0.687633,0.133541,-0.00374508,
8.13466,-37.6105,15.5726,91.2849,0.701117,-0.138693,-0.314985,0.624487,0.369125,-1.26815,0.064867,2.02698,-9.5965,0.529199,-0.137054,0.470137,0.196159,23.79,99.028,0.025001,0.542123,-1.87153,0.103188,0.0602233,-0.237649,0.0126804,-0.131682,-0.159419,0.485321,-0.687633,0.133541,-9.79749,-0.602233,-0.164642,0.31764,-0.687633,0.133541,-0.00374508,
8.15993,-41.4455,15.5374,91.3197,0.696223,-0.162386,-0.335462,0.613491,0.397434,-1.37896,0.0229833,1.9476,-9.62264,-0.0413529,-0.121013,0.466796,0.203625,23.8,99.017,0.025,0.541212,-1.89582,0.0549134,0.0404775,-0.243314,0.00820156,-0.136495,-0.165392,0.477515,-0.350825,0.660603,-9.78931,-0.675829,-0.189306,-0.258674,-0.350825,0.660603,0.00443363,
8.18519,-41.4455,15.5374,91.3197,0.696223,-0.162386,-0.335462,0.613491,0.397434,-1.37896,0.0229833,1.9476,-9.62264,-0.0413529,-0.121013,0.466796,0.203625,23.8,99.017,0.025,0.541212,-1.89582,0.0549134,0.0404775,-0.243314,0.00820156,-0.136495,-0.165392,0.477515,-0.350825,0.660603,-9.78931,-0.675829,-0.189306,-0.258674,-0.350825,0.660603,0.00443363,
8.21045,-46.0439,15.5979,91.3659,0.689485,-0.189975,-0.360052,0.599068,0.475041,-1.64421,0.00668394,1.78884,-9.67281,0.538825,-0.106809,0.469418,0.205424,23.81,99.021,0.025001,0.667088,-2.3179,0.0198116,0.0504765,-0.240916,0.00772256,-0.140628,-0.166144,0.476005,-0.833039,0.420088,-9.8073,-0.844552,-0.242426,0.313963,-0.833039,0.420088,-0.0135527,
8.23572,-50.6753,15.7266,91.415,0.68173,-0.217094,-0.384544,0.583301,0.436715,-1.46487,-0.0131069,2.71153,-9.46441,0.0123225,-0.0926079,0.472032,0.20612,23.79,99.017,0.025001,0.633636,-2.1535,-0.00734962,0.0613435,-0.237627,-0.00296109,-0.144726,-0.166887,0.474425,0.200055,0.105168,-9.84259,0.0569622,-0.0401609,-0.220478,0.200055,0.105168,-0.0488443,
8.26112,-50.6753,15.7266,91.415,0.68173,-0.217094,-0.384544,0.583301,0.436715,-1.46487,-0.0131069,2.71153,-9.46441,0.0123225,-0.0926079,0.472032,0.20612,23.79,99.017,0.025001,0.633636,-2.1535,-0.00734962,0.0613435,-0.237627,-0.00296109,-0.144726,-0.166887,0.474425,0.200055,0.105168,-9.84259,0.0569622,-0.0401609,-0.220478,0.200055,0.105168,-0.0488443,
8.28639,-52.8408,15.7889,91.4411,0.677756,-0.229667,-0.395768,0.575559,0.432573,-1.48619,-0.00380962,3.12597,-9.29722,0.288348,-0.0840482,0.476787,0.208714,23.805,99.032,0.024999,0.610698,-2.08219,-0.00265601,0.0748672,-0.233231,0.00922931,-0.147219,-0.171037,0.476471,0.24482,-0.413148,-9.80115,0.461154,0.124031,0.0513394,0.24482,-0.413148,-0.00740623,
8.31166,-52.8408,15.7889,91.4411,0.677756,-0.229667,-0.395768,0.575559,0.432573,-1.48619,-0.00380962,3.12597,-9.29722,0.288348,-0.0840482,0.476787,0.208714,23.805,99.032,0.024999,0.610698,-2.08219,-0.00265601,0.0748672,-0.233231,0.00922931,-0.147219,-0.171037,0.476471,0.24482,-0.413148,-9.80115,0.461154,0.124031,0.0513394,0.24482,-0.413148,-0.00740623,
8.33693,-57.9885,15.891,91.4846,0.667192,-0.25945,-0.421628,0.556571,0.563236,-1.92171,0.019334,3.2042,-9.2766,0.0821871,-0.0679225,0.484266,0.201742,23.795,99.021,0.024999,0.770243,-2.6446,0.0297532,0.0820556,-0.231618,0.00433256,-0.14677,-0.169345,0.479174,0.421442,-0.375737,-9.79847,0.522586,0.139711,-0.161859,0.421442,-0.375737,-0.00472832,
8.36227,-63.5279,15.9606,91.541,0.654308,-0.291219,-0.448222,0.534948,0.49649,-1.66813,0.0218778,1.81653,-9.64581,1.43206,-0.0499564,0.485789,0.201538,23.795,99.017,0.025,0.756883,-2.55275,0.0454855,0.0618705,-0.23673,0.00986538,-0.154587,-0.170832,0.475419,-1.45734,0.297014,-9.80715,-0.87652,-0.233013,1.17883,-1.45734,0.297014,-0.0134068,
8.38751,-63.5279,15.9606,91.541,0.654308,-0.291219,-0.448222,0.534948,0.49649,-1.66813,0.0218778,1.81653,-9.64581,1.43206,-0.0499564,0.485789,0.201538,23.795,99.017,0.025,0.756883,-2.55275,0.0454855,0.0618705,-0.23673,0.00986538,-0.154587,-0.170832,0.475419,-1.45734,0.297014,-9.80715,-0.87652,-0.233013,1.17883,-1.45734,0.297014,-0.0134068,
8.41276,-66.6703,16.082,91.5626,0.64649,-0.308467,-0.463234,0.521836,0.209183,-0.703185,-0.0330099,2.24827,-9.61404,0.217321,-0.0404859,0.490436,0.189844,23.795,99.021,0.024999,0.340442,-1.16114,-0.0280388,0.0330324,-0.24392,0.02262,-0.14873,-0.168116,0.477309,-0.158179,0.480205,-9.86286,-0.464732,-0.207062,-0.0392929,-0.158179,0.480205,-0.0691185,
8.43802,-66.6703,16.082,91.5626,0.64649,-0.308467,-0.463234,0.521836,0.209183,-0.703185,-0.0330099,2.24827,-9.61404,0.217321,-0.0404859,0.490436,0.189844,23.795,99.021,0.024999,0.340442,-1.16114,-0.0280388,0.0330324,-0.24392,0.02262,-0.14873,-0.168116,0.477309,-0.158179,0.480205,-9.86286,-0.464732,-0.207062,-0.0392929,-0.158179,0.480205,-0.0691185,
8.46331,-67.6859,16.1383,91.5732,0.643926,-0.313919,-0.468075,0.517416,0.205765,-0.73111,-0.00828305,4.21761,-9.00977,0.772992,-0.0376842,0.487391,0.190017,23.79,99.017,0.025001,0.289031,-0.974062,-0.0214197,0.0956288,-0.227949,0.0136796,-0.150978,-0.167652,0.473471,0.0995172,-1.62611,-9.84416,1.49537,0.394495,0.514704,0.0995172,-1.62611,-0.050415,
8.48855,-67.6859,16.1383,91.5732,0.643926,-0.313919,-0.468075,0.517416,0.205765,-0.73111,-0.00828305,4.21761,-9.00977,0.772992,-0.0376842,0.487391,0.190017,23.79,99.017,0.025001,0.289031,-0.974062,-0.0214197,0.0956288,-0.227949,0.0136796,-0.150978,-0.167652,0.473471,0.0995172,-1.62611,-9.84416,1.49537,0.394495,0.514704,0.0995172,-1.62611,-0.050415,
8.5138,-70.2713,16.1871,91.5205,0.636581,-0.327881,-0.480002,0.50681,0.291583,-1.07988,0.0260537,3.42653,-9.13776,0.577089,-0.030079,0.491177,0.192572,23.81,99.021,0.025001,0.354502,-1.35297,0.0399173,0.0949073,-0.227708,0.0184305,-0.157499,-0.169695,0.475017,-0.0650032,-0.809396,-9.74235,0.696282,0.264417,0.327512,-0.0650032,-0.809396,0.0513935,
8.53911,-74.7152,16.1711,91.426,0.622941,-0.351988,-0.499511,0.488404,0.459345,-1.70967,0.0552219,3.04891,-9.27248,1.11012,-0.0185852,0.506719,0.187488,23.81,99.021,0.025,0.629738,-2.34677,0.0806611,0.077789,-0.232212,0.0190245,-0.160821,-0.170352,0.487215,-0.758575,-0.558676,-9.77852,0.321291,0.130859,0.876033,-0.758575,-0.558676,0.0152225,
8.56577,-74.7152,16.1711,91.426,0.622941,-0.351988,-0.499511,0.488404,0.459345,-1.70967,0.0552219,3.04891,-9.27248,1.11012,-0.0185852,0.506719,0.187488,23.81,99.021,0.025,0.629738,-2.34677,0.0806611,0.077789,-0.232212,0.0190245,-0.160821,-0.170352,0.487215,-0.758575,-0.558676,-9.77852,0.321291,0.130859,0.876033,-0.758575,-0.558676,0.0152225,
8.59105,-77.3071,16.1466,91.356,0.614454,-0.365804,-0.510548,0.477468,0.454449,-1.74225,0.0617127,2.7594,-9.37581,0.659949,-0.00738349,0.494522,0.185973,23.81,99.021,0.024999,0.647408,-2.48536,0.0938585,0.071996,-0.234371,0.0235344,-0.164413,-0.169436,0.472708,-0.418492,-0.134807,-9.78582,0.0357946,0.028974,0.437322,-0.418492,-0.134807,0.00792789,
8.61632,-77.3071,16.1466,91.356,0.614454,-0.365804,-0.510548,0.477468,0.454449,-1.74225,0.0617127,2.7594,-9.37581,0.659949,-0.00738349,0.494522,0.185973,23.81,99.021,0.024999,0.647408,-2.48536,0.0938585,0.071996,-0.234371,0.0235344,-0.164413,-0.169436,0.472708,-0.418492,-0.134807,-9.78582,0.0357946,0.028974,0.437322,-0.418492,-0.134807,0.00792789,
8.6416,-82.6138,16.0827,91.1937,0.596005,-0.39343,-0.5324,0.454468,0.480728,-1.86634,0.0710833,3.12635,-9.30751,0.655833,0.00590538,0.50207,0.177754,23.805,99.005,0.025,0.657985,-2.57543,0.0995446,0.0766806,-0.233013,0.0138143,-0.16814,-0.166702,0.477122,-0.403652,-0.478229,-9.8205,0.413251,0.100897,0.45978,-0.403652,-0.478229,-0.0267572,
8.6669,-89.3269,15.9618,91.0216,0.570872,-0.427406,-0.55828,0.423972,0.664177,-2.52587,0.0964714,2.66874,-9.42681,0.539598,0.0285825,0.505372,0.163437,23.81,99.021,0.024999,0.905956,-3.47076,0.138283,0.0728513,-0.234046,0.0157172,-0.170464,-0.167647,0.475149,-0.371753,0.0243656,-9.80507,-0.0245095,-0.0121619,0.371717,-0.371753,0.0243656,-0.011323,
8.69216,-89.3269,15.9618,91.0216,0.570872,-0.427406,-0.55828,0.423972,0.664177,-2.52587,0.0964714,2.66874,-9.42681,0.539598,0.0285825,0.505372,0.163437,23.81,99.021,0.024999,0.905956,-3.47076,0.138283,0.0728513,-0.234046,0.0157172,-0.170464,-0.167647,0.475149,-0.371753,0.0243656,-9.80507,-0.0245095,-0.0121619,0.371717,-0.371753,0.0243656,-0.011323,
8.71744,-96.5274,15.8057,90.8783,0.541804,-0.462411,-0.583838,0.389562,0.568701,-2.13969,0.0908978,2.19756,-9.55166,-0.143358,0.0485035,0.515691,0.150013,23.81,99.021,0.025,0.865414,-3.28171,0.142769,0.0578837,-0.237973,-0.00194941,-0.178077,-0.16733,0.480711,0.343163,0.450173,-9.78588,-0.470022,-0.12931,-0.287815,0.343163,0.450173,0.00786114,
8.74272,-96.5274,15.8057,90.8783,0.541804,-0.462411,-0.583838,0.389562,0.568701,-2.13969,0.0908978,2.19756,-9.55166,-0.143358,0.0485035,0.515691,0.150013,23.81,99.021,0.025,0.865414,-3.28171,0.142769,0.0578837,-0.237973,-0.00194941,-0.178077,-0.16733,0.480711,0.343163,0.450173,-9.78588,-0.470022,-0.12931,-0.287815,0.343163,0.450173,0.00786114,
8.76797,-99.4356,15.7169,90.8372,0.529399,-0.476203,-0.59341,0.375277,0.502586,-1.86913,0.0887387,2.07232,-9.59837,-0.182663,0.0532112,0.516498,0.139217,23.8,99.017,0.025,0.744989,-2.79441,0.138957,0.0553078,-0.238568,-0.0047911,-0.176004,-0.163931,0.480762,0.417572,0.54311,-9.79731,-0.580663,-0.171802,-0.32041,0.417572,0.54311,-0.00356197,
8.79322,-102.091,15.6273,90.8156,0.517779,-0.48863,-0.608614,0.350169,0.430509,-1.46404,0.0318018,1.7238,-9.70909,-0.755712,0.0663914,0.515089,0.125566,23.81,99.021,0.025,0.623318,-2.19151,0.0883309,0.0231977,-0.247303,-0.0254139,-0.178923,-0.162447,0.476538,1.10229,0.69162,-9.80386,-0.906181,-0.276065,-0.89225,1.10229,0.69162,-0.0101156,
8.81849,-104.37,15.5772,90.8293,0.507786,-0.499123,-0.608614,0.350169,0.430509,-1.46404,0.0318018,1.7238,-9.70909,-0.755712,0.0663914,0.515089,0.125566,23.81,99.021,0.025,0.623318,-2.19151,0.0883309,0.0231977,-0.247303,-0.0254139,-0.178923,-0.162447,0.476538,1.10229,0.69162,-9.80386,-0.906181,-0.276065,-0.89225,1.10229,0.69162,-0.0101156,
8.84421,-108.526,15.5376,90.9518,0.489529,-0.518037,-0.620242,0.327565,0.495393,-1.58003,0.0302204,2.43678,-9.49812,0.30231,0.0749849,0.525714,0.11487,23.81,99.01,0.025001,0.650526,-2.05801,0.0547859,0.0570046,-0.238129,-0.00204572,-0.184713,-0.162256,0.484507,-0.0742469,0.233215,-9.80732,-0.186683,-0.0635859,0.145577,-0.0742469,0.233215,-0.0135765,
8.86943,-108.526,15.5376,90.9518,0.489529,-0.518037,-0.620242,0.327565,0.495393,-1.58003,0.0302204,2.43678,-9.49812,0.30231,0.0749849,0.525714,0.11487,23.81,99.01,0.025001,0.650526,-2.05801,0.0547859,0.0570046,-0.238129,-0.00204572,-0.184713,-0.162256,0.484507,-0.0742469,0.233215,-9.80732,-0.186683,-0.0635859,0.145577,-0.0742469,0.233215,-0.0135765,
8.89467,-113.178,15.5406,91.1063,0.468522,-0.53832,-0.632307,0.301474,0.395289,-1.26018,0.0315673,2.38818,-9.48611,0.842694,0.0824568,0.520488,0.102069,23.81,99.021,0.025,0.648288,-2.07105,0.0500021,0.0672602,-0.235289,0.0189707,-0.188988,-0.156594,0.477375,-0.509903,0.484336,-9.79312,-0.235777,-0.052173,0.660507,-0.509903,0.484336,0.000626564,
8.91987,-113.178,15.5406,91.1063,0.468522,-0.53832,-0.632307,0.301474,0.395289,-1.26018,0.0315673,2.38818,-9.48611,0.842694,0.0824568,0.520488,0.102069,23.81,99.021,0.025,0.648288,-2.07105,0.0500021,0.0672602,-0.235289,0.0189707,-0.188988,-0.156594,0.477375,-0.509903,0.484336,-9.79312,-0.235777,-0.052173,0.660507,-0.509903,0.484336,0.000626564,
8.9464,-114.628,15.5277,91.153,0.461733,-0.544515,-0.635816,0.293334,0.253344,-0.823727,0.0255325,2.27235,-9.48024,1.05738,0.0852587,0.518408,0.0978217,23.795,99.021,0.025,0.431698,-1.39372,0.0469354,0.0570613,-0.23886,0.0259562,-0.190223,-0.155221,0.474665,-0.640197,0.682557,-9.7612,-0.349484,-0.0458726,0.867498,-0.640197,0.682557,0.0325499,
8.97179,-116.606,15.5203,91.2016,0.452352,-0.552703,-0.64053,0.282168,0.196441,-0.671801,0.00911567,2.38139,-9.51213,0.628816,0.0871754,0.523253,0.0868438,23.805,99.021,0.025,0.272797,-0.929441,0.0240616,0.058799,-0.238184,0.0169306,-0.187532,-0.156026,0.478981,-0.270147,0.419021,-9.81318,-0.239217,-0.0775778,0.43092,-0.270147,0.419021,-0.0194302,
