Accel X,Accel Y,Accel Z,Gyro X,Gyro Y,Gyro Z,Timestamp
0.40994055,-0.79576695,9.93985263,0.05976,-1.22256,-0.30456,0
0.37618074,-0.82952676,9.94467546,0.04392,-1.21176,-0.31824,0
0.42923187,-0.81505827,9.8868015,0.05616,-1.20528,-0.32328,0
0.40994055,-0.85364091,9.93020697,0.0468,-1.224,-0.32256,0
0.44370036,-0.87775506,9.94467546,0.0468,-1.22184,-0.32832,0
0.43887753,-0.88257789,9.96396678,0.03528,-1.22184,-0.34416,0
0.45816885,-0.83917242,9.90609282,0.04536,-1.2024,-0.32616,0
0.46299168,-0.86328657,9.88197867,0.04248,-1.2132,-0.33192,0
0.48710583,-0.88257789,9.90609282,0.04104,-1.206,-0.33192,0
0.45334602,-0.84881808,9.89644716,0.05544,-1.1988,-0.33984,0
0.44852319,-0.89222355,9.90126999,0.04752,-1.20528,-0.36576,0
0.44370036,-0.84399525,9.90609282,0.05904,-1.20312,-0.37872,0
0.47263734,-0.79576695,9.93020697,0.07704,-1.19664,-0.20232,0
0.40029489,-0.87293223,9.95432112,0.06624,-1.20168,-0.37728,0
0.40029489,-0.80058978,9.91573848,0.0684,-1.19952,-0.39744,0
0.4340547,-0.82470393,9.86268735,0.07272,-1.18728,-0.4068,0
0.39547206,-0.82470393,9.9350298,0.03888,-1.17,-0.38448,0
0.36653508,-0.75718431,9.86268735,0.05544,-1.2096,-0.37728,0
0.40029489,-0.73789299,9.93985263,0.05976,-1.19736,-0.37728,0
0.38100357,-0.72824733,9.94467546,0.04176,-1.18584,-0.36864,0
0.39064923,-0.73789299,9.93985263,0.04104,-1.19376,-0.3672,0
0.4340547,-0.71377884,9.92056131,0.04968,-1.19952,-0.37368,0
0.40511772,-0.73307016,9.82892754,0.04536,-1.18584,-0.35064,0
0.35688942,-0.75236148,9.94467546,0.04104,-1.16928,-0.3384,0
0.41958621,-0.75236148,9.92056131,0.0252,-1.1844,-0.33048,0
0.40029489,-0.78129846,9.93020697,0.03096,-1.18944,-0.30456,0
0.40029489,-0.80541261,9.90609282,0.05184,-1.17216,-0.29448,0
0.37135791,-0.84399525,9.94467546,0.03816,-1.18872,-0.30816,0
0.37618074,-0.80541261,9.93020697,0.04968,-1.18944,-0.29376,0
0.34724376,-0.87293223,9.96396678,0.04032,-1.1664,-0.30744,0
0.34242093,-0.84399525,9.89162433,0.06264,-1.17432,-0.33552,0
0.40029489,-0.80541261,9.90126999,0.06048,-1.17648,-0.32976,0
0.37135791,-0.87775506,9.96396678,0.03168,-1.18944,-0.36072,0
0.31348395,-0.86328657,9.94949829,0.0504,-1.1952,-0.37512,0
0.31830678,-0.84881808,9.89162433,0.04968,-1.18008,-0.41328,0
0.32312961,-0.80541261,9.89644716,0.04824,-1.1844,-0.40104,0
0.2893698,-0.83917242,9.94949829,0.02952,-1.18584,-0.396,0
0.27007848,-0.83917242,9.90609282,0.06408,-1.18152,-0.38952,0
0.2893698,-0.79094412,9.98808093,0.0648,-1.1844,-0.37296,0
0.27007848,-0.86328657,9.93985263,0.0828,-1.2096,-0.38304,0
0.27007848,-0.82470393,9.91091565,0.05832,-1.1916,-0.36,0
0.31348395,-0.79576695,9.98808093,0.0792,-1.18512,-0.36144,0
0.31830678,-0.79576695,9.95432112,0.06048,-1.20384,-0.3456,0
0.31830678,-0.74271582,9.9832581,0.03744,-1.1988,-0.36,0
0.29419263,-0.79576695,9.91573848,0.05256,-1.21752,-0.35856,0
0.29419263,-0.76200714,9.9832581,0.04824,-1.224,-0.37296,0
0.31348395,-0.76200714,9.95914395,0.0576,-1.22184,-0.19368,0
0.28454697,-0.82952676,9.92056131,0.05472,-1.20096,-0.35712,0
0.34724376,-0.78612129,9.93020697,0.04896,-1.2132,-0.35496,0
0.37135791,-0.78129846,9.91573848,0.05112,-1.22904,-0.33696,0
0.32795244,-0.7716528,9.96396678,0.04608,-1.21968,-0.33264,0
0.35688942,-0.88740072,9.96878961,0.04104,-1.21752,-0.33912,0
0.31830678,-0.80058978,9.92056131,0.06048,-1.224,-0.31824,0
0.39064923,-0.83434959,9.89162433,0.04104,-1.22256,-0.32832,0
0.31348395,-0.82952676,9.93985263,0.05112,-1.2132,-0.3312,0
0.36653508,-0.80058978,9.91091565,0.06192,-1.2204,-0.33552,0
0.35206659,-0.81505827,9.94949829,0.05688,-1.22112,-0.35136,0
0.3375981,-0.8198811,9.91091565,0.05328,-1.22544,-0.36576,0
0.36171225,-0.82470393,9.93985263,0.05112,-1.22616,-0.3888,0
0.35206659,-0.80058978,9.89644716,0.06336,-1.22688,-0.40536,0
0.33277527,-0.85364091,9.94467546,0.07344,-1.23984,-0.40968,0
0.35688942,-0.84399525,9.94949829,0.0576,-1.23408,-0.40248,0
0.39064923,-0.85846374,9.95432112,0.05688,-1.23192,-0.4032,0
0.36171225,-0.83434959,9.9350298,0.0684,-1.22544,-0.41544,0
0.4340547,-0.78612129,9.93020697,0.08064,-1.25208,-0.39888,0
0.40511772,-0.80058978,9.91091565,0.07704,-1.21752,-0.38592,0
0.3858264,-0.84399525,9.96396678,0.07128,-1.2276,-0.37656,0
0.30866112,-0.7716528,9.95432112,0.07128,-1.2276,-0.37152,0
0.40029489,-0.7716528,9.92538414,0.07992,-1.24416,-0.37656,0
0.42440904,-0.76200714,9.92056131,0.0576,-1.2348,-0.38088,0
0.43887753,-0.78129846,9.94467546,0.03528,-1.20312,-0.378,0
0.40511772,-0.74753865,9.89644716,0.06552,-1.20672,-0.36216,0
0.37618074,-0.77647563,9.89162433,0.07056,-1.21248,-0.3708,0
0.39547206,-0.82952676,9.97361244,0.0648,-1.23264,-0.36216,0
0.43887753,-0.82952676,9.89162433,0.0648,-1.24272,-0.35352,0
0.40994055,-0.86328657,9.95914395,0.0648,-1.22256,-0.33048,0
0.39064923,-0.87293223,9.97361244,0.06192,-1.21464,-0.324,0
0.39547206,-0.8681094,9.93985263,0.03672,-1.22976,-0.3276,0
0.49192866,-0.83434959,9.9350298,0.03384,-1.2276,-0.3492,0
0.40994055,-0.83917242,9.9350298,0.06408,-1.20744,-0.3492,0
0.35688942,-0.89704638,9.99772659,0.04752,-1.20744,-0.51984,0
0.36171225,-0.85364091,9.94949829,0.05256,-1.1988,-0.38088,0
0.37618074,-0.86328657,9.92538414,0.054,-1.2096,-0.38088,0
0.40029489,-0.83917242,9.94949829,0.05112,-1.21608,-0.39384,0
0.41476338,-0.79576695,9.96396678,0.05328,-1.1772,-0.4068,0
0.41958621,-0.81505827,9.89162433,0.05904,-1.18728,-0.4032,0
0.4340547,-0.81505827,9.97361244,0.03744,-1.18584,-0.4032,0
0.3375981,-0.81023544,9.8868015,0.05256,-1.19088,-0.39744,0
0.32312961,-0.81505827,9.8868015,0.05832,-1.20024,-0.38304,0
0.3858264,-0.78129846,9.91091565,0.04896,-1.1808,-0.37512,0
0.3858264,-0.74271582,9.8868015,0.06696,-1.1988,-0.2088,0
0.41958621,-0.75236148,9.9350298,0.06984,-1.18512,-0.38088,0
0.35206659,-0.68484186,9.87233301,0.05832,-1.20312,-0.36648,0
0.3858264,-0.73307016,9.92538414,0.04968,-1.19736,-0.37008,0
0.30866112,-0.75236148,9.96878961,0.0612,-1.18224,-0.37296,0
0.36653508,-0.7716528,9.93985263,0.04824,-1.19664,-0.3816,0
0.3375981,-0.75718431,9.91573848,0.03672,-1.18728,-0.3528,0
0.38100357,-0.7234245,9.87233301,0.02808,-1.17936,-0.18864,0
0.37135791,-0.78129846,9.9350298,0.03744,-1.21464,-0.34776,0
0.35688942,-0.7716528,9.9350298,0.05184,-1.21032,-0.33336,0
0.35688942,-0.78612129,9.93985263,0.04104,-1.20024,-0.31608,0
0.34724376,-0.77647563,9.85786452,0.04824,-1.20816,-0.31392,0
0.33277527,-0.8198811,9.8868015,0.0252,-1.19232,-0.30456,0
0.32795244,-0.77647563,9.89644716,0.04752,-1.1844,-0.29952,0
0.31348395,-0.81023544,9.96878961,0.04104,-1.18728,-0.29664,0
0.34242093,-0.83434959,9.87715584,0.03384,-1.21896,-0.32904,0
0.34242093,-0.81023544,9.90126999,0.05688,-1.23264,-0.33048,0
0.31348395,-0.84881808,9.91573848,0.054,-1.20456,-0.3492,0
0.31348395,-0.82952676,9.89644716,0.03744,-1.20672,-0.37512,0
0.36171225,-0.82470393,9.90609282,0.05472,-1.19808,-0.37008,0
0.38100357,-0.81023544,9.94467546,0.03672,-1.20744,-0.38376,0
0.34242093,-0.80058978,9.88197867,0.0504,-1.206,-0.36504,0
0.32312961,-0.79576695,9.96878961,0.04248,-1.20312,-0.36504,0
0.34724376,-0.83434959,9.91573848,0.05904,-1.2204,-0.38088,0
0.29901546,-0.83917242,9.91573848,0.05832,-1.20816,-0.19728,0
0.32312961,-0.85364091,9.94467546,0.05256,-1.2096,-0.378,0
0.36653508,-0.76682997,9.93985263,0.06408,-1.2168,-0.39168,0
0.33277527,-0.79094412,9.87233301,0.05472,-1.21032,-0.36144,0
0.38100357,-0.74753865,9.87715584,0.05328,-1.23552,-0.38088,0
0.33277527,-0.79094412,9.89644716,0.0468,-1.22688,-0.36432,0
0.34242093,-0.75718431,9.94949829,0.05472,-1.20384,-0.35856,0
0.33277527,-0.74753865,9.93020697,0.04248,-1.21392,-0.35208,0
0.35688942,-0.75718431,9.94949829,0.05184,-1.22112,-0.33624,0
0.3858264,-0.78129846,9.94467546,0.054,-1.24704,-0.34848,0
0.37618074,-0.75718431,9.90126999,0.054,-1.22904,-0.35856,0
0.3858264,-0.85364091,9.93020697,0.04752,-1.23048,-0.32184,0
0.38100357,-0.83917242,9.92056131,0.05472,-1.23696,-0.32904,0
0.45334602,-0.87293223,9.89162433,0.06696,-1.22328,-0.31104,0
0.39547206,-0.87293223,9.9832581,0.03096,-1.23552,-0.3204,0
0.42440904,-0.8681094,9.94949829,0.03168,-1.22472,-0.32112,0
0.42923187,-0.87293223,9.94467546,0.07128,-1.19736,-0.3384,0
0.42440904,-0.87293223,9.94949829,0.0648,-1.2168,-0.33336,0
0.47263734,-0.8681094,9.90609282,0.06984,-1.21104,-0.34488,0
0.41958621,-0.88257789,9.88197867,0.06192,-1.22544,-0.35568,0
0.38100357,-0.85364091,9.89644716,0.05184,-1.21752,-0.36144,0
0.41958621,-0.84881808,9.89644716,0.0648,-1.21248,-0.37728,0
0.37135791,-0.84881808,9.90126999,0.07704,-1.1916,-0.54072,0
0.38100357,-0.85364091,9.91091565,0.05184,-1.21824,-0.38736,0
0.40029489,-0.83434959,9.93985263,0.0648,-1.20024,-0.40176,0
0.31830678,-0.81023544,9.92538414,0.06192,-1.20888,-0.39456,0
0.40029489,-0.77647563,9.90609282,0.08352,-1.20528,-0.40968,0
0.35688942,-0.81023544,9.87715584,0.06912,-1.18656,-0.3996,0
0.39064923,-0.81023544,9.8868015,0.08136,-1.21536,-0.38232,0
0.41476338,-0.80541261,9.87233301,0.06336,-1.20096,-0.38952,0
0.41476338,-0.8198811,9.91091565,0.05616,-1.2024,-0.37008,0
0.3858264,-0.80058978,9.86751018,0.0468,-1.18152,-0.36,0
0.44852319,-0.79576695,9.94949829,0.0684,-1.20168,-0.3528,0
0.37135791,-0.79576695,9.86751018,0.04176,-1.21752,-0.33912,0
0.39547206,-0.76682997,9.8868015,0.03744,-1.21392,-0.36072,0
0.40511772,-0.80058978,9.93985263,0.04752,-1.1844,-0.3456,0
0.37618074,-0.79576695,9.93020697,0.05688,-1.19448,-0.34992,0
0.42440904,-0.79094412,9.90126999,0.05904,-1.19592,-0.35208,0
0.40029489,-0.77647563,9.94467546,0.04536,-1.19808,-0.34632,0
0.35688942,-0.83917242,9.94949829,0.0576,-1.20024,-0.33408,0
0.36653508,-0.82470393,9.91573848,0.05472,-1.206,-0.34848,0
0.35688942,-0.80058978,9.95432112,0.05472,-1.18584,-0.33984,0
0.35688942,-0.81023544,9.92538414,0.04464,-1.21104,-0.36,0
0.30866112,-0.82952676,9.93985263,0.04536,-1.20528,-0.3672,0
0.30383829,-0.81023544,9.89644716,0.05688,-1.2096,-0.378,0
0.32795244,-0.8198811,9.90609282,0.06624,-1.19448,-0.37728,0
0.39064923,-0.78129846,9.9350298,0.06552,-1.19088,-0.39096,0
0.35206659,-0.77647563,9.95914395,0.06768,-1.18584,-0.38808,0
0.34724376,-0.75236148,9.94467546,0.06696,-1.1916,-0.38592,0
0.35206659,-0.75718431,9.91091565,0.08784,-1.20744,-0.378,0
0.37618074,-0.8198811,9.84821886,0.07416,-1.18728,-0.39096,0
0.2893698,-0.81505827,9.86751018,0.04608,-1.206,-0.40032,0
0.33277527,-0.78129846,9.92056131,0.0684,-1.19304,-0.37512,0
0.33277527,-0.81505827,9.89162433,0.0468,-1.20312,-0.37944,0
0.3858264,-0.73307016,9.91091565,0.06768,-1.21536,-0.35928,0
0.42440904,-0.77647563,9.9350298,0.0576,-1.20096,-0.37368,0
0.35206659,-0.78129846,9.87233301,0.0576,-1.20168,-0.19512,0
0.34242093,-0.79094412,9.91573848,0.0684,-1.21896,-0.35856,0
0.3375981,-0.73789299,9.96878961,0.04752,-1.2276,-0.35784,0
0.36653508,-0.7716528,9.96878961,0.0504,-1.22112,-0.35856,0
0.34724376,-0.78612129,9.87715584,0.06696,-1.23336,-0.3384,0
0.33277527,-0.77647563,9.90126999,0.06264,-1.21392,-0.3528,0
0.37135791,-0.7716528,9.93020697,0.04104,-1.20816,-0.342,0
0.36171225,-0.79576695,9.92538414,0.03888,-1.20744,-0.34776,0
0.34724376,-0.83917242,9.87233301,0.05832,-1.2204,-0.34992,0
0.44370036,-0.86328657,9.89644716,0.03384,-1.22184,-0.35568,0
0.36653508,-0.85846374,9.94949829,0.02448,-1.2276,-0.35568,0
0.39064923,-0.86328657,9.93020697,0.07416,-1.20672,-0.35712,0
0.30866112,-0.84881808,9.94949829,0.0648,-1.21248,-0.3564,0
0.30866112,-0.88740072,9.96396678,0.04536,-1.20528,-0.38808,0
0.27972414,-0.84399525,9.96396678,0.06624,-1.22904,-0.37656,0
0.31830678,-0.84399525,9.90609282,0.08136,-1.20384,-0.40536,0
0.3375981,-0.79094412,9.92056131,0.0504,-1.22616,-0.4104,0
0.34724376,-0.79094412,9.92538414,0.04104,-1.22112,-0.4248,0
0.35206659,-0.79576695,9.91573848,0.06984,-1.21968,-0.4176,0
0.37135791,-0.81023544,9.91091565,0.04896,-1.21608,-0.40176,0
0.3858264,-0.79094412,9.90609282,0.04248,-1.2024,-0.37872,0
0.39547206,-0.82952676,9.94467546,0.07632,-1.22904,-0.39888,0
0.40029489,-0.79576695,9.91091565,0.07056,-1.22832,-0.37296,0
0.42440904,-0.78129846,9.9832581,0.0504,-1.22976,-0.35496,0
0.39064923,-0.83917242,9.97361244,0.04752,-1.2132,-0.34992,0
0.49192866,-0.7716528,9.92056131,0.05328,-1.21392,-0.36,0
0.46299168,-0.84881808,9.97361244,0.05328,-1.19088,-0.37224,0
0.40511772,-0.81023544,9.90609282,0.04464,-1.20168,-0.36864,0
0.41476338,-0.8198811,9.93985263,0.03528,-1.19808,-0.37296,0
0.37135791,-0.88740072,9.96396678,0.02664,-1.21752,-0.3708,0
0.41476338,-0.87775506,9.95432112,0.06048,-1.20456,-0.378,0
0.35206659,-0.84399525,9.94467546,0.04824,-1.2024,-0.37152,0
0.35688942,-0.85846374,9.94949829,0.06192,-1.18872,-0.34056,0
0.34724376,-0.81023544,9.97361244,0.05256,-1.21536,-0.3132,0
0.34242093,-0.83434959,9.90609282,0.05904,-1.2168,-0.33336,0
0.35688942,-0.80541261,9.90126999,0.07128,-1.20888,-0.31968,0
0.3375981,-0.78612129,9.95432112,0.06984,-1.21176,-0.32472,0
0.36653508,-0.83917242,9.96396678,0.06552,-1.22472,-0.31464,0
0.3375981,-0.84881808,9.92056131,0.05256,-1.2204,-0.32976,0
0.3858264,-0.8681094,9.95432112,0.04392,-1.19592,-0.3384,0
0.42440904,-0.86328657,9.93020697,0.07056,-1.206,-0.396,0
0.40994055,-0.85364091,9.91573848,0.0648,-1.18872,-0.38952,0
0.39547206,-0.83434959,9.95914395,0.0648,-1.20456,-0.41688,0
0.32795244,-0.79576695,9.8868015,0.05904,-1.22688,-0.39744,0
0.40029489,-0.79094412,9.91091565,0.05904,-1.20384,-0.40536,0
0.35688942,-0.79094412,9.96878961,0.05688,-1.20384,-0.39456,0
0.36653508,-0.78612129,9.85304169,0.05256,-1.21176,-0.37728,0
0.35688942,-0.76682997,9.8868015,0.06768,-1.19376,-0.3528,0
0.36653508,-0.7716528,9.91573848,0.05544,-1.20312,-0.34128,0
0.40029489,-0.80058978,9.91573848,0.0828,-1.22688,-0.3312,0
0.3858264,-0.78129846,10.00737225,0.07344,-1.20168,-0.34272,0
0.40511772,-0.83434959,9.92538414,0.05256,-1.21104,-0.34128,0
0.46299168,-0.81023544,9.90609282,0.05904,-1.20528,-0.33192,0
0.45334602,-0.82470393,9.87715584,0.04968,-1.18944,-0.33696,0
0.43887753,-0.8681094,9.92538414,0.0684,-1.18656,-0.36432,0
0.38100357,-0.84399525,9.96396678,0.04248,-1.1736,-0.3744,0
0.42923187,-0.73789299,9.93985263,0.0468,-1.19664,-0.38736,0
0.41958621,-0.81023544,9.95432112,0.04536,-1.20024,-0.41688,0
0.37618074,-0.73789299,9.88197867,0.04752,-1.17864,-0.39744,0
0.36653508,-0.7716528,9.89644716,0.04104,-1.17288,-0.38592,0
0.30866112,-0.78612129,9.94467546,0.0504,-1.18944,-0.37368,0
0.37135791,-0.77647563,9.92056131,0.0432,-1.18224,-0.3564,0
0.29901546,-0.76200714,9.89162433,0.04752,-1.20024,-0.35424,0
0.26525565,-0.8198811,10.00737225,0.04536,-1.23048,-0.35136,0
0.25560999,-0.77647563,9.93985263,0.0324,-1.2132,-0.33192,0
0.27490131,-0.76200714,9.97843527,0.04248,-1.2132,-0.32184,0
0.30383829,-0.77647563,9.93985263,0.05544,-1.22328,-0.2952,0
0.36171225,-0.79576695,9.93985263,0.05904,-1.2384,-0.28008,0
0.27972414,-0.85364091,9.92056131,0.0468,-1.23768,-0.28584,0
0.3375981,-0.83917242,9.93985263,0.05904,-1.23264,-0.27,0
0.40029489,-0.85364091,9.99772659,0.054,-1.24056,-0.28368,0
0.33277527,-0.84399525,9.97361244,0.054,-1.22832,-0.29376,0
0.35688942,-0.85846374,9.92538414,0.03024,-1.22616,-0.28728,0
0.44852319,-0.88257789,9.9350298,0.0468,-1.23048,-0.31536,0
0.40511772,-0.8681094,9.93985263,0.05904,-1.2168,-0.32184,0
0.43887753,-0.83917242,9.9350298,0.06264,-1.2132,-0.37296,0
0.39547206,-0.84881808,9.93985263,0.05688,-1.206,-0.38808,0
0.40994055,-0.84399525,9.97843527,0.0648,-1.20528,-0.40032,0
0.32795244,-0.74753865,9.97361244,0.06336,-1.18656,-0.41976,0
0.37618074,-0.74753865,9.92056131,0.05472,-1.1988,-0.42408,0
0.35688942,-0.73789299,9.92056131,0.05112,-1.20384,-0.42192,0
0.34724376,-0.76200714,9.87233301,0.03024,-1.20096,-0.37224,0
0.3375981,-0.79094412,9.97843527,0.04392,-1.19016,-0.37008,0
0.32312961,-0.7234245,9.91573848,0.0432,-1.21896,-0.34488,0
0.32795244,-0.73789299,9.91091565,0.04176,-1.23408,-0.35208,0
0.2893698,-0.80541261,9.95432112,0.06264,-1.22256,-0.32256,0
0.36653508,-0.76682997,9.94467546,0.03744,-1.21536,-0.32256,0
0.32795244,-0.79094412,9.94949829,0.0504,-1.2312,-0.31248,0
0.39547206,-0.74753865,9.93985263,0.03456,-1.21536,-0.31608,0
0.31830678,-0.83917242,9.87715584,0.03528,-1.2456,-0.29808,0
0.38100357,-0.73789299,9.89162433,0.03456,-1.25712,-0.31752,0
0.35688942,-0.87293223,9.83375037,0.02232,-1.2384,-0.34056,0
0.45816885,-0.8681094,9.90609282,0.00576,-1.2312,-0.33696,0
0.47746017,-0.81505827,9.94467546,0.03528,-1.22976,-0.35568,0
0.52086564,-0.87775506,9.93020697,0.04176,-1.21752,-0.36144,0
0.52086564,-0.88257789,9.86751018,0.05616,-1.21824,-0.35568,0
0.52568847,-0.8681094,9.95432112,0.05832,-1.21824,-0.33984,0
0.41476338,-0.85364091,9.92538414,0.08064,-1.22616,-0.33552,0
0.4340547,-0.8681094,9.94949829,0.07056,-1.20888,-0.33552,0
0.41958621,-0.85846374,9.91091565,0.07272,-1.206,-0.3564,0
0.40029489,-0.81023544,9.92056131,0.06768,-1.20816,-0.36648,0
0.40994055,-0.78612129,9.93985263,0.04824,-1.20672,-0.3888,0
0.39064923,-0.79094412,9.94949829,0.0612,-1.20888,-0.37368,0
0.40994055,-0.80541261,9.91573848,0.04824,-1.2204,-0.36072,0
0.35688942,-0.77647563,9.91573848,0.05688,-1.206,-0.34776,0
0.33277527,-0.79576695,9.93985263,0.0612,-1.21968,-0.33336,0
0.29901546,-0.83434959,9.96878961,0.0576,-1.21608,-0.29376,0
0.4340547,-0.88257789,9.93985263,0.05904,-1.21032,-0.29736,0
0.44852319,-0.90186921,9.95432112,0.05832,-1.22544,-0.2808,0
0.48710583,-0.88257789,9.93020697,0.04176,-1.1988,-0.26712,0
0.52086564,-0.87293223,9.9350298,0.09936,-1.2204,-0.32472,0
0.47746017,-0.85364091,9.94949829,0.07992,-1.22184,-0.35568,0
0.45334602,-0.81505827,9.9350298,0.07056,-1.18584,-0.38448,0
0.44370036,-0.82952676,9.90609282,0.05904,-1.18728,-0.4032,0
0.45816885,-0.90669204,9.95432112,0.0468,-1.17936,-0.4284,0
0.41958621,-0.95492034,9.92538414,0.04824,-1.17,-0.4428,0
0.36171225,-0.89704638,9.94467546,0.04752,-1.1664,-0.43488,0
0.31830678,-0.83917242,9.92538414,0.06408,-1.15992,-0.41472,0
0.31830678,-0.88257789,9.92538414,0.07488,-1.16784,-0.39528,0
0.30383829,-0.80541261,9.95914395,0.08352,-1.18872,-0.39528,0
0.31830678,-0.8198811,9.9832581,0.08784,-1.1736,-0.37296,0
0.33277527,-0.78612129,9.93985263,0.09072,-1.17432,-0.3708,0
0.36171225,-0.82952676,9.95914395,0.0972,-1.18512,-0.3816,0
0.31348395,-0.80541261,9.94949829,0.06264,-1.19448,-0.36792,0
0.27972414,-0.80058978,9.99290376,0.08784,-1.18368,-0.4068,0
0.30383829,-0.81023544,9.96396678,0.09,-1.19664,-0.41328,0
0.21220452,-0.79576695,9.91091565,0.06696,-1.19376,-0.4248,0
0.28454697,-0.80058978,9.90126999,0.06192,-1.18728,-0.44352,0
0.29419263,-0.74753865,9.94467546,0.08352,-1.20672,-0.43776,0
0.29901546,-0.71377884,9.90609282,0.06624,-1.2024,-0.41832,0
0.2893698,-0.71860167,9.94949829,0.09144,-1.19448,-0.4032,0
0.27007848,-0.73789299,9.94949829,0.07632,-1.20744,-0.36864,0
0.2893698,-0.79094412,9.91091565,0.07416,-1.23624,-0.3168,0
0.32312961,-0.67037337,9.96396678,0.05976,-1.21968,-0.31752,0
0.36171225,-0.69931035,9.92538414,0.07128,-1.2384,-0.29376,0
0.34242093,-0.70413318,9.93985263,0.07992,-1.23048,-0.30888,0
0.31830678,-0.68484186,9.91091565,0.06408,-1.22184,-0.31464,0
0.34724376,-0.74271582,9.94949829,0.08136,-1.21392,-0.32544,0
0.35206659,-0.74271582,9.92538414,0.06912,-1.22472,-0.34488,0
0.35688942,-0.74753865,9.9350298,0.05616,-1.24128,-0.34992,0
0.34242093,-0.79094412,9.90609282,0.04896,-1.21824,-0.36072,0
0.48710583,-0.83917242,9.8868015,0.0432,-1.22976,-0.33912,0
0.54015696,-0.88257789,9.91573848,0.0324,-1.23552,-0.3348,0
0.58356243,-0.95492034,9.97361244,0.02232,-1.23696,-0.31968,0
0.54980262,-0.99350298,9.92538414,0.03312,-1.21464,-0.32184,0
0.56427111,-0.94527468,9.87233301,0.06624,-1.19952,-0.32256,0
0.39547206,-0.88257789,9.86751018,0.07272,-1.1844,-0.38664,0
0.32312961,-0.81505827,9.96878961,0.0936,-1.1664,-0.40896,0
0.24596433,-0.72824733,9.92538414,0.10728,-1.17,-0.52128,0
0.20255886,-0.64625922,9.91573848,0.07416,-1.18008,-0.5508,0
0.13021641,-0.68966469,9.97361244,0.06264,-1.18944,-0.59328,0
0.14950773,-0.68001903,9.95914395,0.0432,-1.16424,-0.59544,0
0.13021641,-0.68001903,9.97361244,0.0252,-1.18584,-0.55656,0
0.11092509,-0.64625922,10.00254942,0.03168,-1.18584,-0.46008,0
0.13021641,-0.68966469,9.95432112,0.03888,-1.2492,-0.40968,0
0.18809037,-0.7234245,9.95432112,0.06552,-1.27368,-0.35568,0
0.32312961,-0.7234245,9.96878961,0.054,-1.296,-0.25632,0
0.46299168,-0.74753865,9.93985263,0.10584,-1.3068,-0.21816,0
0.55944828,-0.7716528,9.93985263,0.07416,-1.2996,-0.17136,0
0.63179073,-0.75718431,8.67144834,0.06912,-1.2888,-0.16488,0
0.67037337,-0.82470393,9.84339603,0.07344,-1.25928,-0.1656,0
0.63661356,-0.83917242,9.86268735,0.054,-1.23552,-0.22752,0
0.62214507,-0.85846374,9.95432112,0.01728,-1.23048,-0.2556,0
0.66555054,-0.83434959,9.8868015,0.02448,-1.20024,-0.36216,0
0.58838526,-0.95492034,8.64251136,0.0108,-1.19448,-0.38376,0
0.52086564,-0.94045185,9.8868015,0.0144,-1.1628,-0.3924,0
0.49192866,-0.86328657,9.90609282,0.05688,-1.17936,-0.38448,0
0.45816885,-0.93562902,9.92056131,0.05472,-1.17216,-0.36288,0
0.42923187,-0.90669204,9.92538414,0.04608,-1.16928,-0.34344,0
0.32795244,-0.88740072,9.91573848,0.054,-1.15848,-0.33336,0
0.25078716,-0.88257789,9.96396678,0.0756,-1.16856,-0.32904,0
0.31830678,-0.86328657,9.94467546,0.05112,-1.1988,-0.32976,0
0.28454697,-0.88740072,9.90126999,0.06264,-1.17216,-0.33984,0
0.20255886,-0.84399525,9.92538414,0.06912,-1.19088,-0.3924,0
0.21220452,-0.84399525,9.94949829,0.07344,-1.18512,-0.43848,0
0.22185018,-0.79576695,9.93020697,0.072,-1.1844,-0.44424,0
0.25078716,-0.78612129,9.93985263,0.04968,-1.18656,-0.46296,0
0.21220452,-0.79576695,9.93985263,0.0792,-1.21464,-0.4716,0
0.27490131,-0.79576695,9.91091565,0.07344,-1.23048,-0.41472,0
0.32795244,-0.81023544,9.94467546,0.06984,-1.21032,-0.37944,0
0.35206659,-0.76200714,9.92056131,0.072,-1.23696,-0.3168,0
0.38100357,-0.76200714,9.92056131,0.08568,-1.23264,-0.29736,0
0.48710583,-0.76200714,9.92538414,0.08928,-1.24416,-0.27648,0
0.46299168,-0.77647563,9.94949829,0.07488,-1.23768,-0.28512,0
0.56909394,-0.81505827,9.88197867,0.06408,-1.23912,-0.28728,0
0.53533413,-0.8681094,9.97361244,0.06336,-1.2168,-0.29592,0
0.58356243,-0.89222355,9.89644716,0.05976,-1.21608,-0.30672,0
0.5787396,-0.92116053,9.93985263,0.03672,-1.2024,-0.36288,0
0.61732224,-0.91151487,9.90609282,0.05688,-1.18368,-0.378,0
0.50639715,-0.89704638,9.91573848,0.03672,-1.17864,-0.38736,0
0.43887753,-0.93562902,9.90609282,0.04248,-1.16136,-0.42264,0
0.42440904,-0.90669204,9.86268735,0.0828,-1.18296,-0.4428,0
0.32795244,-0.84399525,9.89644716,0.08856,-1.1844,-0.44856,0
0.3375981,-0.87775506,9.92538414,0.05184,-1.15992,-0.4428,0
0.19773603,-0.88740072,9.96878961,0.04248,-1.16136,-0.43632,0
0.15433056,-0.84881808,9.90609282,0.06552,-1.1772,-0.42552,0
0.17844471,-0.82470393,9.98808093,0.07704,-1.15416,-0.41616,0
0.10127943,-0.85364091,9.9350298,0.0648,-1.16784,-0.41904,0
0.13021641,-0.80541261,9.97843527,0.10008,-1.1772,-0.4284,0
0.1446849,-0.79576695,9.98808093,0.08856,-1.18872,-0.45648,0
0.1929132,-0.81505827,9.94467546,0.09792,-1.22832,-0.4572,0
0.26043282,-0.78612129,9.89644716,0.09072,-1.24776,-0.45504,0
0.34724376,-0.76682997,9.92056131,0.0756,-1.23768,-0.43776,0
0.34242093,-0.69931035,9.93020697,0.08424,-1.2528,-0.39528,0
0.3375981,-0.68484186,9.93020697,0.07272,-1.25496,-0.34632,0
0.42440904,-0.69931035,9.89162433,0.08568,-1.26,-0.29808,0
0.47263734,-0.73307016,9.90609282,0.07056,-1.24056,-0.26568,0
0.44370036,-0.78129846,9.87233301,0.07344,-1.25064,-0.25056,0
0.54980262,-0.81023544,9.90609282,0.09144,-1.26864,-0.27432,0
0.59320809,-0.76682997,9.90126999,0.08352,-1.25352,-0.30024,0
0.56909394,-0.80058978,9.93985263,0.07632,-1.21896,-0.31968,0
0.62214507,-0.80541261,9.89162433,0.07632,-1.19304,-0.3312,0
0.5787396,-0.75718431,9.90126999,0.09216,-1.20528,-0.38016,0
0.50639715,-0.81023544,9.88197867,0.07848,-1.18728,-0.39816,0
0.42440904,-0.7716528,9.9350298,0.05688,-1.17072,-0.39816,0
0.34724376,-0.82952676,9.8868015,0.02232,-1.16856,-0.38808,0
0.32795244,-0.84881808,9.93020697,0.01152,-1.16136,-0.378,0
0.31830678,-0.87293223,9.92056131,0.00216,-1.19736,-0.39672,0
0.26525565,-0.86328657,9.97361244,0.04752,-1.17072,-0.3708,0
0.22667301,-0.85846374,9.99290376,0.07704,-1.18944,-0.3528,0
0.21702735,-0.80058978,9.93020697,0.09144,-1.2024,-0.3456,0
0.25560999,-0.7716528,9.94949829,0.08424,-1.21968,-0.37296,0
0.22667301,-0.8198811,9.92538414,0.08784,-1.20888,-0.38592,0
0.21220452,-0.83434959,9.93985263,0.09072,-1.21464,-0.41184,0
0.29419263,-0.76682997,9.94467546,0.04896,-1.21176,-0.40896,0
0.3375981,-0.81505827,9.94467546,0.04248,-1.21536,-0.4248,0
0.3375981,-0.77647563,9.95914395,0.06048,-1.224,-0.4536,0
0.3375981,-0.78612129,9.90126999,0.08352,-1.224,-0.4716,0
0.34724376,-0.70413318,9.99290376,0.0756,-1.21896,-0.46512,0
0.49192866,-0.70413318,9.91573848,0.0612,-1.24056,-0.39744,0
0.45334602,-0.73307016,9.95432112,0.06192,-1.2456,-0.38376,0
0.54015696,-0.70413318,9.9350298,0.06696,-1.23264,-0.31176,0
0.53533413,-0.69931035,9.91091565,0.03816,-1.22544,-0.27576,0
0.56909394,-0.73789299,9.93020697,0.04896,-1.21752,-0.27072,0
0.53533413,-0.73307016,9.89644716,0.04104,-1.21536,-0.28728,0
0.57391677,-0.76200714,9.89644716,0.05544,-1.22184,-0.30168,0
0.48710583,-0.75236148,9.93020697,0.05328,-1.1916,-0.34488,0
0.46299168,-0.80058978,9.93020697,0.03528,-1.1844,-0.37224,0
0.41476338,-0.81505827,9.90609282,0.02376,-1.17216,-0.4032,0
0.40511772,-0.81505827,9.94467546,0.03888,-1.15416,-0.37152,0
0.27972414,-0.87775506,9.93020697,0.01224,-1.16496,-0.37368,0
0.31830678,-0.9163377,9.95914395,0.00576,-1.15488,-0.34632,0
0.25560999,-0.964566,9.90126999,0.03816,-1.19088,-0.34344,0
0.30866112,-0.92598336,9.90126999,0.03888,-1.1772,-0.2844,0
0.25560999,-0.93562902,9.96396678,0.05688,-1.2276,-0.30528,0
0.29419263,-0.90186921,9.94949829,0.08352,-1.2096,-0.30384,0
0.31348395,-0.8681094,9.91573848,0.0864,-1.20744,-0.31104,0
0.2411415,-0.8681094,9.9350298,0.05976,-1.19304,-0.3276,0
0.31830678,-0.82952676,9.86751018,0.07416,-1.18728,-0.37512,0
0.31830678,-0.83434959,9.95914395,0.05976,-1.22976,-0.40392,0
0.32795244,-0.83917242,9.94467546,0.05328,-1.2132,-0.42336,0
0.35688942,-0.80541261,9.92538414,0.05256,-1.1952,-0.4464,0
0.35206659,-0.8681094,9.97361244,0.05688,-1.20384,-0.43416,0
0.40994055,-0.87293223,9.97843527,0.07488,-1.21536,-0.39384,0
0.40029489,-0.86328657,9.87233301,0.07488,-1.2168,-0.36648,0
0.46781451,-0.81023544,9.90126999,0.07272,-1.21824,-0.35856,0
0.50639715,-0.73789299,9.87715584,0.07992,-1.22184,-0.34848,0
0.49675149,-0.75718431,9.87715584,0.08352,-1.2132,-0.3384,0
0.47263734,-0.75718431,9.97843527,0.06192,-1.21608,-0.33984,0
0.43887753,-0.76200714,9.90126999,0.09144,-1.18584,-0.3384,0
0.47263734,-0.76200714,9.92056131,0.0684,-1.19664,-0.36072,0
0.45816885,-0.76682997,9.92056131,0.0504,-1.1808,-0.378,0
0.43887753,-0.78129846,9.95432112,0.05976,-1.18872,-0.38376,0
0.31348395,-0.82470393,9.98808093,0.04608,-1.18584,-0.37512,0
0.29901546,-0.79576695,9.94949829,0.05328,-1.18656,-0.39312,0
0.23149584,-0.87293223,9.9832581,0.07776,-1.19448,-0.18648,0
0.18809037,-0.85846374,9.99772659,0.06912,-1.2024,-0.35928,0
0.25078716,-0.82952676,9.95914395,0.06984,-1.19664,-0.35496,0
0.21220452,-0.7716528,9.92056131,0.06984,-1.1952,-0.32904,0
0.21702735,-0.8681094,9.99290376,0.06048,-1.2168,-0.34344,0
0.21220452,-0.82470393,9.97361244,0.05472,-1.2276,-0.37512,0
0.22667301,-0.84399525,9.91573848,0.07056,-1.23768,-0.35424,0
0.19773603,-0.85364091,9.95432112,0.05904,-1.2276,-0.38304,0
0.1929132,-0.89704638,9.97843527,0.0648,-1.24272,-0.38304,0
0.27490131,-0.87775506,9.91091565,0.09504,-1.25064,-0.37008,0
0.32312961,-0.83434959,9.93985263,0.07632,-1.25496,-0.38232,0
0.36653508,-0.74753865,9.8868015,0.0756,-1.24272,-0.38664,0
0.41476338,-0.78612129,9.91091565,0.08136,-1.23768,-0.36648,0
0.46299168,-0.78612129,9.89644716,0.072,-1.23768,-0.3708,0
0.52568847,-0.73307016,9.87233301,0.07848,-1.25712,-0.3924,0
0.56427111,-0.73307016,9.87715584,0.0756,-1.22832,-0.42624,0
0.57391677,-0.76682997,9.97361244,0.0648,-1.21896,-0.4608,0
0.61249941,-0.72824733,9.90126999,0.05544,-1.20672,-0.46944,0
0.56909394,-0.73307016,9.86751018,0.03744,-1.19952,-0.4896,0
0.54015696,-0.71860167,9.97361244,0.0468,-1.19088,-0.4932,0
0.46299168,-0.78612129,9.92056131,0.04032,-1.18368,-0.45072,0
0.42923187,-0.7716528,9.91091565,0.04464,-1.1808,-0.39528,0
0.40029489,-0.75718431,9.9832581,0.0612,-1.1988,-0.3744,0
0.35688942,-0.71377884,9.91091565,0.04536,-1.19952,-0.31824,0
0.27972414,-0.72824733,9.94467546,0.03528,-1.19448,-0.2808,0
0.26043282,-0.74271582,9.92538414,0.05832,-1.1988,-0.27216,0
0.30383829,-0.76682997,9.92056131,0.0396,-1.19592,-0.25992,0
0.23149584,-0.75718431,9.94467546,0.054,-1.22904,-0.25776,0
0.19773603,-0.78612129,9.91573848,0.05832,-1.2384,-0.28728,0
0.27007848,-0.77647563,9.90126999,0.036,-1.2384,-0.32184,0
0.22185018,-0.83434959,9.95914395,0.0576,-1.2348,-0.32256,0
0.32312961,-0.80541261,9.93985263,0.03384,-1.23048,-0.33048,0
0.30866112,-0.8198811,9.94467546,0.04176,-1.23912,-0.32184,0
0.42923187,-0.90669204,9.91091565,0.03744,-1.2312,-0.30168,0
0.46299168,-0.93080619,9.93020697,0.05904,-1.2204,-0.29592,0
0.49192866,-0.82470393,9.94949829,0.0648,-1.23696,-0.3204,0
0.51604281,-0.84881808,9.95432112,0.06624,-1.22616,-0.31464,0
0.51121998,-0.85846374,9.91091565,0.0648,-1.23048,-0.34128,0
0.54497979,-0.87293223,9.94467546,0.06624,-1.21104,-0.3708,0
0.58838526,-0.87775506,9.93985263,0.04752,-1.21176,-0.40752,0
0.56909394,-0.89222355,9.92056131,0.04176,-1.1916,-0.43632,0
0.52086564,-0.82470393,9.93020697,0.04464,-1.16064,-0.47304,0
0.49192866,-0.83917242,9.8868015,0.0432,-1.16208,-0.47304,0
0.44370036,-0.82952676,9.90126999,0.04608,-1.13688,-0.468,0
0.39547206,-0.85846374,9.92056131,0.05616,-1.13832,-0.45216,0
0.35206659,-0.7716528,9.94467546,0.05472,-1.14336,-0.42696,0
0.27972414,-0.75718431,9.94949829,0.05328,-1.1484,-0.35784,0
0.28454697,-0.77647563,9.9832581,0.07128,-1.16856,-0.34704,0
0.21702735,-0.72824733,9.89644716,0.04104,-1.16568,-0.3312,0
0.20738169,-0.7716528,9.94467546,0.05976,-1.15704,-0.324,0
0.20738169,-0.79094412,9.94467546,0.05256,-1.18728,-0.31968,0
0.1929132,-0.80058978,9.90126999,0.072,-1.18872,-0.3384,0
0.22185018,-0.76200714,9.96396678,0.05616,-1.19448,-0.35496,0
0.21220452,-0.84399525,9.94949829,0.07272,-1.2204,-0.36504,0
0.24596433,-0.79576695,9.92056131,0.05328,-1.22256,-0.34704,0
0.29901546,-0.82470393,9.93985263,0.03384,-1.21608,-0.35568,0
0.3375981,-0.88257789,9.92538414,0.06408,-1.21824,-0.31824,0
0.33277527,-0.84881808,9.92056131,0.05832,-1.21032,-0.29736,0
0.40029489,-0.88257789,9.87233301,0.07632,-1.23192,-0.28512,0
0.41958621,-0.92116053,11.07321768,0.05904,-1.21536,-0.28584,0
0.46299168,-0.8681094,9.91091565,0.07056,-1.23768,-0.27504,0
0.50639715,-0.84881808,9.91091565,0.07128,-1.23696,-0.30312,0
0.51121998,-0.91151487,9.92538414,0.06912,-1.224,-0.30384,0
0.46781451,-0.84399525,9.93020697,0.09792,-1.1808,-0.40248,0
0.50157432,-0.8681094,9.91573848,0.07776,-1.18944,-0.414,0
0.35206659,-0.9163377,9.87233301,0.06696,-1.1772,-0.44208,0
0.32795244,-0.83917242,9.8868015,0.06408,-1.18728,-0.45,0
0.31830678,-0.83917242,9.90126999,0.05616,-1.17576,-0.468,0
0.32795244,-0.85364091,9.87233301,0.07704,-1.17144,-0.45648,0
0.30383829,-0.76682997,9.90609282,0.06264,-1.1988,-0.44784,0
0.27490131,-0.81505827,9.94467546,0.07128,-1.20528,-0.43128,0
0.22667301,-0.7234245,9.95914395,0.06768,-1.2024,-0.4176,0
0.18809037,-0.69931035,9.97361244,0.05976,-1.20168,-0.40176,0
0.12057075,-0.68966469,9.92056131,0.06552,-1.19592,-0.396,0
0.23149584,-0.73307016,9.9350298,0.04752,-1.21464,-0.20304,0
0.22667301,-0.75718431,9.92056131,0.04392,-1.23984,-0.31824,0
0.37135791,-0.76682997,9.91573848,0.06048,-1.25712,-0.3096,0
0.32795244,-0.78612129,9.91573848,0.05328,-1.242,-0.31104,0
0.34724376,-0.73789299,9.95914395,0.05904,-1.2528,-0.33048,0
0.42440904,-0.78129846,9.91091565,0.05184,-1.26864,-0.31536,0
0.40994055,-0.66072771,9.92056131,0.05904,-1.25208,-0.34272,0
0.45334602,-0.75236148,9.94467546,0.05112,-1.23552,-0.36,0
0.44370036,-0.74271582,9.94467546,0.04608,-1.22688,-0.30528,0
0.49675149,-0.81505827,9.89644716,0.04248,-1.25136,-0.26568,0
0.48710583,-0.85364091,9.91573848,0.04176,-1.24704,-0.3024,0
0.41958621,-0.82470393,9.99290376,0.04464,-1.21536,-0.31032,0
0.45334602,-0.81505827,9.94467546,0.05616,-1.20456,-0.30744,0
0.40511772,-0.83917242,9.91573848,0.09432,-1.22688,-0.32184,0
0.41958621,-0.78612129,9.93020697,0.07272,-1.20816,-0.34272,0
0.40029489,-0.7716528,9.91091565,0.06048,-1.19952,-0.4032,0
0.44852319,-0.65108205,9.97843527,0.05472,-1.17936,-0.41832,0
0.36653508,-0.7716528,9.94467546,0.05328,-1.1808,-0.43776,0
0.34724376,-0.79094412,9.88197867,0.04176,-1.19088,-0.47016,0
0.29419263,-0.7234245,9.94467546,0.01944,-1.18512,-0.48456,0
0.34724376,-0.76200714,9.92538414,0.03384,-1.18296,-0.41472,0
0.35688942,-0.78612129,9.94949829,0.06264,-1.19232,-0.3924,0
0.34724376,-0.78612129,9.89644716,0.06624,-1.21464,-0.32544,0
0.34242093,-0.78612129,9.90126999,0.05544,-1.2204,-0.31392,0
0.4340547,-0.78129846,9.95432112,0.072,-1.2276,-0.3024,0
0.52568847,-0.79094412,9.94949829,0.08496,-1.21464,-0.31464,0
0.38100357,-0.70413318,9.86751018,0.072,-1.21104,-0.34632,0
0.39064923,-0.67037337,9.88197867,0.04752,-1.2096,-0.38664,0
0.51121998,-0.78129846,9.96396678,0.01728,-1.21968,-0.36504,0
0.36171225,-0.88740072,9.97361244,0.00648,-1.2132,-0.33336,0
0.49192866,-0.85364091,9.97361244,0.02016,-1.1844,-0.34056,0
0.4340547,-0.86328657,9.90609282,0.02448,-1.20024,-0.36216,0
0.36653508,-0.84399525,9.94949829,0.03168,-1.18944,-0.3528,0
0.3858264,-0.80058978,9.90126999,0.06912,-1.20672,-0.31608,0
0.45334602,-0.8198811,9.97361244,0.0648,-1.224,-0.27288,0
0.40994055,-0.84399525,9.84821886,0.02664,-1.22112,-0.28368,0
0.41476338,-0.84881808,9.90126999,0.03312,-1.21248,-0.28656,0
0.42923187,-0.8681094,9.89644716,0.02376,-1.20888,-0.24192,0
0.41958621,-0.87293223,9.87715584,0.01872,-1.1916,-0.26064,0
0.37618074,-0.88740072,9.95432112,0.02952,-1.16784,-0.32976,0
0.35688942,-0.84399525,9.93020697,0.05184,-1.18512,-0.3852,0
0.27972414,-0.84399525,9.92538414,0.06192,-1.1808,-0.39384,0
0.34724376,-0.82470393,9.94467546,0.04896,-1.19088,-0.3816,0
0.31830678,-0.88257789,9.89644716,0.04824,-1.18152,-0.38592,0
0.30866112,-0.82952676,9.8868015,0.05688,-1.19736,-0.39456,0
0.29901546,-0.84881808,9.90126999,0.0612,-1.18872,-0.42048,0
0.21702735,-0.76682997,9.95432112,0.0648,-1.188,-0.42912,0
0.22185018,-0.83917242,9.95914395,0.06408,-1.21752,-0.40104,0
0.29419263,-0.81505827,9.87233301,0.06624,-1.20744,-0.40536,0
0.36171225,-0.75718431,9.92056131,0.06192,-1.23552,-0.43848,0
0.37135791,-0.77647563,9.92538414,0.0612,-1.20672,-0.40176,0
0.33277527,-0.78129846,9.89162433,0.0756,-1.22976,-0.20232,0
0.35688942,-0.75718431,9.92056131,0.0684,-1.21752,-0.32472,0
0.40511772,-0.7716528,9.94949829,0.06624,-1.19304,-0.31752,0
0.37618074,-0.84399525,9.96878961,0.04464,-1.23048,-0.31896,0
0.36171225,-0.82470393,9.93020697,0.06192,-1.20816,-0.31824,0
0.43887753,-0.87293223,9.87715584,0.05472,-1.22112,-0.30024,0
0.41476338,-0.84881808,9.90126999,0.06984,-1.2024,-0.34416,0
0.40994055,-0.83917242,9.93020697,0.07992,-1.18152,-0.37008,0
0.3375981,-0.81023544,9.86751018,0.0648,-1.17864,-0.41184,0
0.39547206,-0.83434959,9.95432112,0.06696,-1.17144,-0.41472,0
0.33277527,-0.82952676,9.91573848,0.04968,-1.20744,-0.43128,0
0.29901546,-0.81505827,9.93985263,0.05256,-1.20168,-0.43992,0
0.3375981,-0.80058978,9.94949829,0.05832,-1.20168,-0.4104,0
0.3858264,-0.81505827,9.94949829,0.06192,-1.1988,-0.40752,0
0.29901546,-0.82952676,9.97843527,0.05472,-1.19232,-0.36576,0
0.3375981,-0.81505827,9.93020697,0.08352,-1.2204,-0.33048,0
0.36653508,-0.80058978,9.9832581,0.06768,-1.22616,-0.31176,0
0.30383829,-0.82952676,9.90126999,0.08856,-1.22112,-0.34704,0
0.2893698,-0.8198811,9.87233301,0.07776,-1.224,-0.3276,0
0.32312961,-0.80541261,9.90609282,0.0576,-1.224,-0.31968,0
0.32795244,-0.75718431,9.96878961,0.09072,-1.22544,-0.32976,0
0.29419263,-0.82470393,9.90609282,0.0684,-1.21608,-0.36,0
0.34724376,-0.78129846,9.94949829,0.08856,-1.21464,-0.37512,0
0.35206659,-0.7716528,9.85786452,0.07632,-1.22184,-0.38592,0
0.37618074,-0.75236148,9.8868015,0.09144,-1.23624,-0.3636,0
0.42923187,-0.74753865,9.94949829,0.06984,-1.2312,-0.38304,0
0.39547206,-0.75718431,9.92538414,0.072,-1.21896,-0.38664,0
0.41476338,-0.75236148,9.95432112,0.0756,-1.22472,-0.38088,0
0.44852319,-0.71860167,9.93985263,0.09,-1.20384,-0.37728,0
0.3858264,-0.69931035,9.92056131,0.05976,-1.2024,-0.38304,0
0.41476338,-0.75718431,9.89644716,0.05976,-1.19952,-0.36864,0
0.39064923,-0.76682997,9.89644716,0.04752,-1.2204,-0.38232,0
0.43887753,-0.76682997,9.92538414,0.04176,-1.21392,-0.35568,0
0.36171225,-0.75718431,9.91573848,0.04752,-1.20528,-0.36072,0
0.40511772,-0.73307016,8.69073966,0.06192,-1.23048,-0.33984,0
0.34242093,-0.71860167,9.95432112,0.02952,-1.2276,-0.33552,0
0.34724376,-0.75718431,9.94467546,0.02952,-1.21752,-0.32328,0
0.34242093,-0.75236148,9.91573848,0.04248,-1.22256,-0.29592,0
0.39547206,-0.77647563,9.92056131,0.02808,-1.21104,-0.2628,0
0.4340547,-0.8681094,8.70520815,0.01584,-1.2168,-0.2448,0
0.34242093,-0.8198811,9.90609282,0.02304,-1.2348,-0.2484,0
0.35688942,-0.85846374,10.01701791,0.03672,-1.2168,-0.27864,0
0.37135791,-0.82470393,9.91091565,0.05904,-1.23192,-0.30672,0
0.27490131,-0.8198811,9.90609282,0.06336,-1.23552,-0.34848,0
0.35206659,-0.77647563,9.85786452,0.05544,-1.17504,-0.38808,0
0.33277527,-0.80541261,9.93985263,0.05904,-1.19808,-0.4068,0
0.34724376,-0.72824733,9.90609282,0.05328,-1.21968,-0.43848,0
0.33277527,-0.75718431,9.89644716,0.04176,-1.21464,-0.42048,0
0.41476338,-0.74271582,9.90609282,0.03744,-1.21032,-0.414,0
0.40029489,-0.74271582,9.91091565,0.04032,-1.21896,-0.42192,0
0.41958621,-0.74753865,9.90609282,0.04608,-1.19664,-0.42048,0
0.42440904,-0.78612129,9.93985263,0.05256,-1.20744,-0.4104,0
0.47746017,-0.76682997,9.84821886,0.03168,-1.21608,-0.39456,0
0.50157432,-0.80058978,9.86268735,0.02592,-1.21032,-0.36936,0
0.54497979,-0.76200714,9.89644716,0.04536,-1.20816,-0.35064,0
0.47746017,-0.80541261,9.88197867,0.01152,-1.1916,-0.34272,0
0.40511772,-0.87775506,9.97843527,0.02304,-1.2096,-0.27936,0
0.45816885,-0.83434959,9.9350298,-0.00216,-1.18728,-0.27432,0
0.46299168,-0.90186921,9.90609282,0.0144,-1.20168,-0.2844,0
0.3858264,-0.89704638,9.88197867,0.04608,-1.19232,-0.28296,0
0.40511772,-0.87775506,9.91573848,0.05976,-1.17432,-0.27144,0
0.35206659,-0.84881808,9.90609282,0.04896,-1.17144,-0.28224,0
0.34724376,-0.83917242,9.90609282,0.05472,-1.19808,-0.29088,0
0.32795244,-0.89704638,9.92538414,0.04464,-1.19736,-0.31176,0
0.29901546,-0.88740072,9.94467546,0.05832,-1.1988,-0.32184,0
0.29419263,-0.89222355,9.9350298,0.05256,-1.1952,-0.36648,0
0.26043282,-0.88740072,9.96878961,0.0684,-1.1988,-0.38304,0
0.25560999,-0.82470393,10.00254942,0.04968,-1.21464,-0.40464,0
0.25078716,-0.84399525,9.92056131,0.06912,-1.21392,-0.42768,0
0.3375981,-0.78129846,9.9350298,0.09432,-1.21752,-0.39384,0
0.34242093,-0.75236148,9.90126999,0.07488,-1.2384,-0.39024,0
0.32312961,-0.76200714,9.93020697,0.06192,-1.20096,-0.3528,0
0.38100357,-0.76200714,9.95432112,0.04464,-1.22112,-0.31536,0
0.40511772,-0.86328657,9.91091565,0.05472,-1.24272,-0.27792,0
0.48710583,-0.88257789,9.93985263,0.05832,-1.23696,-0.2952,0
0.52568847,-0.87775506,9.87233301,0.0756,-1.23264,-0.30528,0
0.54497979,-0.80541261,9.91091565,0.07632,-1.24776,-0.31176,0
0.51604281,-0.81505827,9.87233301,0.09072,-1.21752,-0.34776,0
0.54980262,-0.83917242,9.92056131,0.06624,-1.21536,-0.37008,0
0.51121998,-0.83434959,9.9350298,0.04536,-1.19736,-0.38304,0
0.49675149,-0.85364091,9.91091565,0.03672,-1.20816,-0.39096,0
0.40994055,-0.93080619,9.9350298,0.02304,-1.17072,-0.35352,0
0.41476338,-0.9163377,9.91091565,0.0468,-1.16856,-0.36216,0
0.3858264,-0.87775506,9.92056131,0.05472,-1.1592,-0.36792,0
0.36171225,-0.88257789,9.91573848,0.0792,-1.18872,-0.38304,0
0.29901546,-0.83434959,9.91573848,0.09504,-1.1952,-0.38736,0
0.26525565,-0.82952676,9.90609282,0.10944,-1.188,-0.41472,0
0.22667301,-0.78612129,9.92538414,0.08784,-1.2096,-0.41832,0
0.20738169,-0.7234245,9.93985263,0.08856,-1.20672,-0.4536,0
0.18809037,-0.77647563,9.91091565,0.04536,-1.19736,-0.45936,0
0.25560999,-0.7716528,9.91091565,0.05688,-1.20096,-0.45864,0
0.27007848,-0.80058978,9.9350298,0.06264,-1.22328,-0.44064,0
0.26043282,-0.82952676,9.97843527,0.03384,-1.24272,-0.40968,0
0.30866112,-0.80058978,9.93020697,0.05256,-1.23264,-0.34776,0
0.35688942,-0.79094412,9.93020697,0.09144,-1.24704,-0.32904,0
0.40994055,-0.79094412,9.88197867,0.10224,-1.24704,-0.288,0
0.42923187,-0.78129846,8.67627117,0.07992,-1.26648,-0.2556,0
0.47746017,-0.75236148,9.96396678,0.09072,-1.24992,-0.27144,0
0.50157432,-0.74271582,9.93985263,0.08136,-1.2348,-0.27576,0
0.51604281,-0.78612129,9.89162433,0.0576,-1.24272,-0.32688,0
0.61249941,-0.80058978,9.86751018,0.05688,-1.21464,-0.3852,0
0.61732224,-0.79094412,9.94467546,0.05832,-1.20744,-0.414,0
0.52086564,-0.82470393,9.9350298,0.04608,-1.2132,-0.42624,0
0.58838526,-0.80541261,8.66180268,0.06624,-1.1592,-0.45072,0
0.3858264,-0.81023544,9.90609282,0.0468,-1.17288,-0.44784,0
0.44370036,-0.77647563,9.9350298,0.03744,-1.1952,-0.40752,0
0.39547206,-0.81505827,9.89162433,0.054,-1.18368,-0.36792,0
0.3375981,-0.77647563,9.90609282,0.05328,-1.17864,-0.30456,0
0.36171225,-0.80058978,9.92538414,0.07416,-1.16136,-0.30456,0
0.26043282,-0.82470393,9.89162433,0.05328,-1.18944,-0.28944,0
0.23149584,-0.75236148,9.88197867,0.06264,-1.18656,-0.30312,0
0.26043282,-0.7716528,9.97361244,0.05112,-1.1808,-0.32688,0
0.25560999,-0.75718431,9.93020697,0.054,-1.20744,-0.37008,0
0.21702735,-0.78129846,9.95914395,0.05184,-1.20888,-0.39024,0
0.29419263,-0.8198811,9.96878961,0.06048,-1.20096,-0.40104,0
0.29419263,-0.8198811,9.90609282,0.0324,-1.20672,-0.44136,0
0.29419263,-0.81023544,9.86751018,0.04032,-1.21176,-0.42624,0
0.31348395,-0.76200714,9.96878961,0.06264,-1.22256,-0.43128,0
0.38100357,-0.76682997,9.91091565,0.04824,-1.2096,-0.42768,0
0.37135791,-0.78612129,9.87715584,0.04104,-1.22472,-0.20952,0
0.46299168,-0.75236148,9.92538414,0.0576,-1.224,-0.33408,0
0.45334602,-0.8198811,9.92538414,0.07848,-1.24344,-0.27936,0
0.43887753,-0.80541261,9.89162433,0.08136,-1.19448,-0.27792,0
0.44852319,-0.73789299,9.85786452,0.05472,-1.21392,-0.26928,0
0.47746017,-0.81023544,9.93985263,0.05832,-1.20672,-0.25272,0
0.45816885,-0.80058978,9.88197867,0.03312,-1.19808,-0.30744,0
0.49192866,-0.80541261,9.85786452,0.02376,-1.20744,-0.32904,0
0.52568847,-0.81023544,9.92056131,0.04176,-1.21104,-0.42264,0
0.52568847,-0.81023544,9.89644716,0.0396,-1.17936,-0.44928,0
0.42440904,-0.84881808,9.91091565,0.03024,-1.17504,-0.46944,0
0.41476338,-0.8681094,9.9350298,0.03528,-1.18224,-0.49608,0
0.32795244,-0.84399525,9.90126999,0.03744,-1.16928,-0.49392,0
0.37618074,-0.85846374,9.87233301,0.0288,-1.18296,-0.45504,0
0.31830678,-0.86328657,9.91573848,0.02736,-1.18512,-0.44568,0
0.26043282,-0.87293223,9.89162433,0.036,-1.17288,-0.34776,0
0.23631867,-0.86328657,9.94467546,0.05832,-1.19016,-0.31248,0
0.1929132,-0.86328657,9.91573848,0.06192,-1.1988,-0.30168,0
0.1446849,-0.87775506,9.94949829,0.08856,-1.2096,-0.30672,0
0.20738169,-0.8681094,9.98808093,0.1044,-1.23624,-0.31536,0
0.2411415,-0.86328657,9.97843527,0.11376,-1.22976,-0.39096,0
0.2893698,-0.81023544,9.86268735,0.0864,-1.21968,-0.42048,0
0.3375981,-0.73789299,9.90609282,0.07344,-1.21032,-0.48744,0
0.29419263,-0.72824733,11.10697749,0.07488,-1.20384,-0.47232,0
0.2893698,-0.82952676,9.87715584,0.04824,-1.20168,-0.46656,0
0.2893698,-0.80058978,9.8868015,0.0396,-1.20816,-0.36216,0
0.32795244,-0.80058978,9.90609282,0.03672,-1.22184,-0.2952,0
0.36171225,-0.76682997,9.93985263,0.04752,-1.242,-0.23904,0
0.40994055,-0.85846374,9.92538414,0.06984,-1.2456,-0.2124,0
0.46299168,-0.79576695,9.91091565,0.0612,-1.2348,-0.19728,0
0.58356243,-0.85364091,9.9350298,0.08856,-1.25712,-0.2736,0
0.63179073,-0.81023544,9.86268735,0.08712,-1.23408,-0.31176,0
0.59320809,-0.81023544,9.91091565,0.08064,-1.2168,-0.54936,0
0.55462545,-0.75718431,9.87233301,0.05328,-1.17648,-0.45144,0
0.54497979,-0.85846374,9.95432112,0.04032,-1.16136,-0.45576,0
0.34724376,-0.88257789,9.93020697,0.01296,-1.15416,-0.41616,0
0.34724376,-0.88257789,9.93020697,0.02664,-1.17504,-0.39384,0
0.25560999,-0.9163377,9.93985263,0.02376,-1.18656,-0.19152,0
0.25560999,-0.90669204,9.9350298,0.0936,-1.20456,-0.33192,0
0.22185018,-0.88740072,9.9832581,0.09504,-1.20168,-0.33336,0
0.20738169,-0.85364091,9.97361244,0.11664,-1.21104,-0.378,0
0.24596433,-0.81505827,9.92056131,0.10224,-1.224,-0.4068,0
0.27007848,-0.70895601,9.89162433,0.09504,-1.22256,-0.44712,0
0.32312961,-0.74753865,9.91091565,0.06984,-1.22832,-0.47664,0
0.26525565,-0.81505827,9.87715584,0.05904,-1.21104,-0.46872,0
0.26043282,-0.80541261,9.94467546,0.0216,-1.20744,-0.43992,0
0.29901546,-0.80541261,9.95432112,0.0252,-1.22472,-0.40248,0
0.36171225,-0.7716528,9.9350298,0.07632,-1.24632,-0.3888,0
0.36653508,-0.71860167,9.96878961,0.08136,-1.25496,-0.3672,0
0.47746017,-0.7234245,9.86751018,0.11952,-1.25928,-0.33264,0
0.54015696,-0.70895601,9.87715584,0.1224,-1.2636,-0.32976,0
0.51121998,-0.65590488,9.88197867,0.09864,-1.25712,-0.3348,0
0.53533413,-0.64625922,9.89644716,0.04824,-1.23984,-0.31248,0
0.53533413,-0.78129846,9.92056131,0.05112,-1.2312,-0.31608,0
0.52086564,-0.74271582,9.86268735,0.018,-1.21968,-0.31752,0
0.53533413,-0.8681094,9.90609282,0.00576,-1.21608,-0.32544,0
0.56909394,-0.88740072,9.94949829,0.04824,-1.20528,-0.3348,0
0.482283,-0.83917242,9.89644716,0.06624,-1.21824,-0.36,0
0.54015696,-0.77647563,9.93020697,0.0756,-1.20096,-0.36216,0
0.47746017,-0.74753865,9.93985263,0.09216,-1.19592,-0.39024,0
0.36653508,-0.7234245,9.87233301,0.0648,-1.17864,-0.40104,0
0.33277527,-0.74271582,9.96396678,0.02736,-1.17144,-0.39168,0
0.22185018,-0.82470393,9.95432112,0.02088,-1.17288,-0.38592,0
0.29901546,-0.89704638,9.95432112,-0.00216,-1.18368,-0.35856,0
0.25560999,-0.89704638,9.94467546,0.01728,-1.18512,-0.35928,0
0.19773603,-0.91151487,9.99772659,0.03744,-1.188,-0.34488,0
0.22185018,-0.89222355,9.91573848,0.08712,-1.20024,-0.36,0
0.30866112,-0.82952676,9.92538414,0.08928,-1.22976,-0.378,0
0.29901546,-0.8198811,9.93985263,0.10296,-1.22256,-0.41832,0
0.40511772,-0.74271582,9.91091565,0.07488,-1.21608,-0.42408,0
0.39547206,-0.79094412,9.91573848,0.06336,-1.2132,-0.4464,0
0.36171225,-0.78129846,9.89162433,0.05328,-1.20456,-0.43056,0
0.35688942,-0.79094412,9.87233301,0.04104,-1.18368,-0.41544,0
0.37618074,-0.78129846,9.89644716,0.03672,-1.18872,-0.39024,0
0.40029489,-0.75718431,9.89644716,0.03456,-1.2024,-0.33192,0
0.482283,-0.82470393,9.88197867,0.04896,-1.21248,-0.3204,0
0.54497979,-0.79576695,9.87715584,0.04032,-1.24128,-0.28656,0
0.59320809,-0.78612129,9.94949829,0.05976,-1.21968,-0.29088,0
0.54015696,-0.76200714,9.8385732,0.07488,-1.20888,-0.2916,0
0.53533413,-0.71860167,9.88197867,0.07416,-1.15992,-0.35352,0
0.56427111,-0.75236148,9.86268735,0.04608,-1.16064,-0.37512,0
0.41958621,-0.80058978,9.89644716,0.03096,-1.18944,-0.4428,0
0.31830678,-0.83917242,9.93020697,-0.02016,-1.15848,-0.43128,0
0.2411415,-0.87775506,9.93985263,0.00864,-1.15488,-0.43488,0
0.1929132,-0.84399525,9.97361244,0.01944,-1.17072,-0.42264,0
0.13021641,-0.87293223,9.99290376,0.036,-1.17792,-0.2016,0
0.11092509,-0.8681094,9.96396678,0.02448,-1.18008,-0.25992,0
0.15433056,-0.88740072,9.94467546,0.06696,-1.20024,-0.20304,0
0.1446849,-0.86328657,9.93020697,0.06696,-1.23552,-0.16992,0
0.21220452,-0.88740072,9.95914395,0.08712,-1.242,-0.17496,0
0.28454697,-0.88740072,9.93020697,0.08136,-1.22472,-0.29592,0
0.30866112,-0.85364091,9.93985263,0.06264,-1.23984,-0.36432,0
0.35688942,-0.80058978,9.88197867,0.06192,-1.25208,-0.4104,0
0.36171225,-0.82952676,9.88197867,0.06696,-1.22616,-0.51624,0
0.37618074,-0.80058978,9.94949829,0.03312,-1.21536,-0.53064,0
0.32312961,-0.85364091,9.86268735,0.0396,-1.19664,-0.50328,0
0.35206659,-0.80058978,9.93985263,0.054,-1.22832,-0.45216,0
0.39064923,-0.85846374,9.90126999,0.05184,-1.206,-0.35856,0
0.46299168,-0.89222355,9.94467546,0.05328,-1.23552,-0.30384,0
0.43887753,-0.83917242,9.95432112,0.06984,-1.25928,-0.2592,0
0.51121998,-0.76200714,9.92056131,0.0864,-1.23768,-0.2052,0
0.51604281,-0.75718431,9.91573848,0.10008,-1.24992,-0.22176,0
0.51121998,-0.7234245,9.90126999,0.09792,-1.24344,-0.3132,0
0.46781451,-0.80058978,9.87715584,0.08064,-1.206,-0.38016,0
0.482283,-0.78129846,9.89162433,0.04032,-1.19664,-0.46656,0
0.41476338,-0.8198811,8.69556249,0.03744,-1.17936,-0.58896,0
0.3375981,-0.81023544,9.89162433,0.03312,-1.17216,-0.63288,0
0.2893698,-0.82952676,9.88197867,0.01008,-1.16568,-0.63432,0
0.2411415,-0.79094412,9.90609282,0.0216,-1.17504,-0.59472,0
0.1929132,-0.79094412,9.91091565,0.02376,-1.17792,-0.43704,0
0.21702735,-0.80058978,9.95914395,0.04608,-1.2168,-0.35784,0
0.20255886,-0.8198811,10.01701791,0.05904,-1.22184,-0.1692,0
0.1929132,-0.84399525,10.00737225,0.08064,-1.2564,-0.10368,0
0.30866112,-0.88740072,9.93020697,0.08856,-1.25496,-0.07416,0
0.35688942,-0.85846374,9.93020697,0.08928,-1.29312,-0.11664,0
0.37135791,-0.78612129,9.91573848,0.08712,-1.26216,-0.19152,0
0.44370036,-0.81505827,9.92538414,0.1008,-1.26144,-0.37944,0
0.50157432,-0.78129846,9.86268735,0.0756,-1.25136,-0.4896,0
0.55462545,-0.74753865,9.83375037,0.07704,-1.23984,-0.58176,0
0.56427111,-0.78129846,9.86268735,0.0324,-1.21536,-0.68328,0
0.54497979,-0.79576695,9.8868015,0.0324,-1.2024,-0.702,0
0.47746017,-0.82952676,9.94949829,0.02376,-1.16784,-0.58896,0
0.50157432,-0.82952676,9.90126999,0.03312,-1.2024,-0.49176,0
0.40029489,-0.89222355,9.88197867,0.0324,-1.18008,-0.198,0
0.40511772,-0.89222355,9.89644716,0.06984,-1.21896,-0.1728,0
0.41476338,-0.8681094,9.95432112,0.09792,-1.22832,-0.09576,0
0.48710583,-0.84881808,9.87715584,0.10584,-1.2132,-0.08424,0
0.482283,-0.76200714,9.88197867,0.13896,-1.21968,-0.12312,0
0.51604281,-0.76200714,9.92538414,0.13032,-1.22112,-0.19872,0
0.41958621,-0.73789299,11.08768617,0.0936,-1.18152,-0.41472,0
0.42440904,-0.78612129,9.86751018,0.04608,-1.15632,-0.49968,0
0.35688942,-0.81505827,9.85786452,0.04104,-1.134,-0.6516,0
0.27007848,-0.81505827,9.94467546,0.00216,-1.14696,-0.67896,0
0.21702735,-0.85846374,9.99290376,0.00072,-1.15128,-0.65736,0
0.20255886,-0.81505827,9.94949829,0.04032,-1.16712,-0.53424,0
0.15915339,-0.79576695,9.95432112,0.05184,-1.18224,-0.44856,0
0.24596433,-0.77647563,9.92056131,0.08784,-1.23696,-0.22752,0
0.2411415,-0.76682997,9.92056131,0.11304,-1.23696,-0.14976,0
0.3858264,-0.74753865,9.89162433,0.12528,-1.27584,-0.04032,0
0.37618074,-0.84399525,9.87715584,0.11088,-1.27584,-0.02592,0
0.53533413,-0.76200714,9.87715584,0.10944,-1.26072,-0.03816,0
0.54015696,-0.84399525,8.69073966,0.08568,-1.23984,-0.15768,0
0.5305113,-0.83917242,9.9350298,0.05904,-1.21536,-0.23976,0
0.47746017,-0.84881808,9.8868015,0.03384,-1.19664,-0.46224,0
0.51604281,-0.80541261,9.89162433,0.036,-1.18152,-0.55944,0
0.42440904,-0.8681094,9.96396678,0.03096,-1.152,-0.66384,0
0.39547206,-0.88257789,9.96396678,0.02448,-1.15848,-0.64224,0
0.32795244,-0.82470393,9.93020697,0.03528,-1.16568,-0.4032,0
0.30866112,-0.85364091,9.8868015,0.0576,-1.1736,-0.44352,0
0.2411415,-0.83917242,9.9350298,0.05904,-1.16712,-0.32976,0
0.20255886,-0.89222355,9.98808093,0.06552,-1.19448,-0.18936,0
0.29419263,-0.92116053,9.91573848,0.09288,-1.19592,-0.15192,0
0.2893698,-0.85364091,9.92056131,0.10512,-1.21752,-0.31608,0
0.32795244,-0.81505827,9.93020697,0.11232,-1.23624,-0.2808,0
0.41476338,-0.77647563,9.87233301,0.11088,-1.2132,-0.37152,0
0.38100357,-0.73789299,9.93985263,0.08136,-1.19088,-0.55584,0
0.3375981,-0.64143639,9.91573848,0.05832,-1.17576,-0.62712,0
0.24596433,-0.66072771,9.87715584,0.05832,-1.14768,-0.66456,0
0.18809037,-0.70895601,9.96878961,0.0396,-1.15416,-0.65592,0
0.18326754,-0.76682997,9.96396678,0.00504,-1.16136,-0.58248,0
0.1929132,-0.76682997,9.93985263,-0.00864,-1.18656,-0.38376,0
0.21702735,-0.80058978,9.97843527,0.04824,-1.2456,-0.28584,0
0.26043282,-0.82952676,9.92538414,0.07488,-1.24344,-0.21024,0
0.28454697,-0.8198811,9.96396678,0.10152,-1.278,-0.08064,0
0.37618074,-0.79576695,9.88197867,0.13104,-1.29528,-0.08424,0
0.45334602,-0.75236148,9.89162433,0.13104,-1.28088,-0.14544,0
0.49675149,-0.69448752,9.88197867,0.07776,-1.24776,-0.2088,0
0.59320809,-0.71860167,9.91573848,0.05256,-1.2312,-0.30024,0
0.51121998,-0.78612129,9.8385732,0.02952,-1.20384,-0.46224,0
0.51604281,-0.82952676,9.9832581,0.01296,-1.18224,-0.53784,0
0.3858264,-0.85846374,9.97361244,-0.01728,-1.19016,-0.6012,0
0.31830678,-0.81505827,9.93020697,-0.00432,-1.18656,-0.60624,0
0.2893698,-0.87293223,9.91573848,0.02088,-1.15848,-0.53136,0
0.26043282,-0.89222355,9.96396678,0.03168,-1.20168,-0.4572,0
0.30383829,-0.87293223,9.90609282,0.05688,-1.20744,-0.19944,0
0.32312961,-0.88257789,9.94467546,0.06624,-1.22832,-0.23472,0
0.3375981,-0.84881808,9.91573848,0.07488,-1.2636,-0.22536,0
0.34724376,-0.83917242,9.88197867,0.09432,-1.22184,-0.22104,0
0.37618074,-0.83917242,9.89162433,0.07056,-1.22256,-0.25056,0
0.36171225,-0.79576695,9.8868015,0.06624,-1.24128,-0.49392,0
0.41476338,-0.75718431,9.93985263,0.05328,-1.21032,-0.51048,0
0.42923187,-0.74271582,9.93020697,0.0504,-1.1916,-0.60912,0
0.37135791,-0.74271582,9.90126999,0.06048,-1.18728,-0.73296,0
0.31830678,-0.70895601,9.96396678,0.0432,-1.18008,-0.7416,0
0.34724376,-0.68484186,9.88197867,0.03528,-1.1808,-0.64584,0
0.41958621,-0.71377884,9.92056131,0.0252,-1.22112,-0.56304,0
0.40994055,-0.73307016,9.93985263,0.0216,-1.2096,-0.4356,0
0.41958621,-0.79094412,9.91573848,0.03384,-1.22544,-0.22032,0
0.41958621,-0.78129846,9.94467546,0.07344,-1.25208,-0.12168,0
0.47746017,-0.80058978,9.90126999,0.08136,-1.26144,-0.06408,0
0.51121998,-0.78129846,9.91091565,0.0684,-1.2672,-0.08856,0
0.54497979,-0.71377884,9.86268735,0.08136,-1.23552,-0.10152,0
0.52568847,-0.74753865,9.9350298,0.06912,-1.21752,-0.23904,0
0.52086564,-0.75718431,9.89162433,0.0468,-1.21248,-0.29952,0
0.5305113,-0.7716528,9.81928188,0.03312,-1.18944,-0.44568,0
0.40511772,-0.83917242,9.83375037,-0.01224,-1.152,-0.49392,0
0.36653508,-0.83917242,9.92538414,-0.0072,-1.13904,-0.50112,0
0.36171225,-0.88740072,9.89162433,-0.01224,-1.15128,-0.49392,0
0.30866112,-0.97421166,9.8868015,0.01944,-1.1664,-0.45144,0
0.27972414,-0.99350298,9.94949829,0.03816,-1.18944,-0.34416,0
0.27972414,-0.95009751,9.88197867,0.08496,-1.20672,-0.3096,0
0.36171225,-0.89222355,9.91091565,0.0792,-1.23336,-0.26424,0
0.37618074,-0.94045185,9.84339603,0.07344,-1.23624,-0.20448,0
0.39064923,-0.92116053,9.85786452,0.0936,-1.21464,-0.22824,0
0.37135791,-0.87293223,9.87715584,0.09216,-1.20168,-0.3024,0
0.43887753,-0.83917242,9.8868015,0.06768,-1.20528,-0.35496,0
0.40029489,-0.84881808,9.94467546,0.07848,-1.17936,-0.49464,0
0.35206659,-0.81505827,9.86268735,0.07128,-1.18872,-0.57312,0
0.39064923,-0.77647563,9.8868015,0.08136,-1.18152,-0.66168,0
0.32795244,-0.7716528,9.92056131,0.04536,-1.15992,-0.6768,0
0.39547206,-0.73789299,9.90126999,0.06768,-1.17432,-0.64944,0
0.40029489,-0.73789299,9.86268735,0.0684,-1.18584,-0.54504,0
0.34242093,-0.74753865,9.94949829,0.06192,-1.1772,-0.4752,0
0.37135791,-0.71860167,9.87715584,0.06624,-1.17864,-0.31896,0
0.34242093,-0.75236148,9.94467546,0.06336,-1.21608,-0.25704,0
0.38100357,-0.76682997,9.92056131,0.08352,-1.22184,-0.22968,0
0.36171225,-0.75236148,9.92538414,0.08928,-1.20744,-0.25488,0
0.3858264,-0.77647563,9.92056131,0.0864,-1.21032,-0.25056,0
0.38100357,-0.73789299,9.89644716,0.09072,-1.17936,-0.34056,0
0.36653508,-0.79576695,9.93020697,0.06984,-1.20312,-0.40752,0
0.29901546,-0.80058978,9.89162433,0.0792,-1.20096,-0.43488,0
0.32312961,-0.76682997,9.93020697,0.04176,-1.17576,-0.46296,0
0.28454697,-0.87293223,9.97361244,0.03744,-1.1592,-0.486,0
0.32312961,-0.87775506,9.89644716,0.04968,-1.17792,-0.44856,0
0.29901546,-0.89704638,9.93985263,0.03888,-1.20024,-0.39384,0
0.24596433,-0.89704638,9.87233301,0.07128,-1.20744,-0.35928,0
0.33277527,-0.86328657,9.8868015,0.08856,-1.2204,-0.28872,0
0.34724376,-0.84881808,9.89644716,0.10296,-1.21608,-0.27288,0
0.38100357,-0.82470393,9.90609282,0.11736,-1.26,-0.27072,0
0.37135791,-0.79094412,9.92056131,0.11016,-1.2312,-0.27864,0
0.41476338,-0.83917242,9.8868015,0.10872,-1.21464,-0.324,0
0.3858264,-0.74753865,8.64733419,0.08856,-1.18512,-0.41112,0
0.31830678,-0.7716528,9.93020697,0.06696,-1.20312,-0.48096,0
0.36171225,-0.80058978,9.90126999,0.05904,-1.224,-0.53496,0
0.34242093,-0.79094412,9.94949829,0.07416,-1.20384,-0.54504,0
0.36171225,-0.74271582,9.95914395,0.05688,-1.18872,-0.378,0
0.36171225,-0.69931035,9.89162433,0.07776,-1.20816,-0.4932,0
0.4340547,-0.65590488,9.87233301,0.09432,-1.1844,-0.44424,0
0.34724376,-0.6751962,9.90126999,0.09288,-1.20672,-0.36072,0
0.40994055,-0.74271582,9.9350298,0.07416,-1.20096,-0.30528,0
0.3375981,-0.68001903,9.90609282,0.08208,-1.2168,-0.27648,0
0.44370036,-0.70895601,9.91091565,0.06984,-1.23048,-0.26496,0
0.40511772,-0.70413318,9.93985263,0.07056,-1.23624,-0.26712,0
0.37135791,-0.7716528,8.67144834,0.05616,-1.21392,-0.28224,0
0.35688942,-0.7234245,9.87715584,0.04032,-1.21392,-0.34992,0
0.39547206,-0.7716528,9.92056131,0.03024,-1.20816,-0.4356,0
0.31348395,-0.85846374,9.93985263,0.02448,-1.20168,-0.47448,0
0.29419263,-0.83917242,9.92538414,0.03312,-1.19304,-0.4932,0
0.26525565,-0.87775506,9.93020697,0.01584,-1.18944,-0.48312,0
0.37135791,-0.90186921,9.91091565,0.03528,-1.21392,-0.45288,0
0.30383829,-0.90186921,9.91091565,0.02736,-1.22976,-0.42768,0
0.35688942,-0.91151487,9.91573848,0.06912,-1.23264,-0.40392,0
0.36171225,-0.92116053,9.87715584,0.07128,-1.22328,-0.36072,0
0.37135791,-0.88740072,9.94949829,0.09288,-1.24056,-0.32544,0
0.46299168,-0.84881808,9.86751018,0.08064,-1.22472,-0.33984,0
0.47263734,-0.79576695,9.87233301,0.10152,-1.24488,-0.36216,0
0.50639715,-0.79094412,9.82892754,0.08856,-1.23624,-0.36,0
0.46299168,-0.76200714,9.90126999,0.07488,-1.23984,-0.41832,0
0.50157432,-0.73307016,9.91573848,0.0648,-1.19376,-0.47232,0
0.42440904,-0.68001903,9.8868015,0.04968,-1.19736,-0.48168,0
0.43887753,-0.70895601,9.91573848,0.04536,-1.19664,-0.51624,0
0.45816885,-0.68484186,9.92056131,0.04392,-1.1952,-0.5112,0
0.3375981,-0.63661356,9.91091565,0.054,-1.19304,-0.44424,0
0.35206659,-0.66072771,9.92538414,0.04464,-1.21104,-0.40824,0
0.36653508,-0.67037337,9.92056131,0.04176,-1.20672,-0.3636,0
0.34242093,-0.78129846,9.85786452,0.04896,-1.21824,-0.26424,0
0.4340547,-0.78129846,9.90126999,0.04104,-1.22112,-0.22536,0
0.36171225,-0.79576695,9.89644716,0.05184,-1.23552,-0.18144,0
0.32312961,-0.81023544,9.88197867,0.04752,-1.21032,-0.18216,0
0.31830678,-0.83917242,9.90609282,0.03816,-1.206,-0.22824,0
0.34242093,-0.83917242,9.8868015,0.02376,-1.23336,-0.25776,0
0.37618074,-0.82952676,9.90126999,0.05688,-1.21752,-0.29232,0
0.35206659,-0.90186921,9.95914395,0.03312,-1.21104,-0.37152,0
0.39547206,-0.90186921,9.87233301,0.05544,-1.21392,-0.41616,0
0.40029489,-0.86328657,9.86268735,0.04968,-1.20816,-0.41184,0
0.4340547,-0.89222355,9.94949829,0.0504,-1.21248,-0.42696,0
0.34724376,-0.88257789,9.94949829,0.04896,-1.20816,-0.41472,0
0.32312961,-0.81023544,9.90609282,0.07056,-1.20816,-0.39888,0
0.30866112,-0.83434959,9.92538414,0.0828,-1.21464,-0.38592,0
0.42923187,-0.87775506,9.92056131,0.05616,-1.21032,-0.35064,0
0.42923187,-0.82470393,9.93020697,0.07776,-1.21176,-0.34272,0
0.482283,-0.84399525,9.8868015,0.08424,-1.20024,-0.36864,0
0.47746017,-0.80541261,9.84339603,0.06696,-1.224,-0.38448,0
0.41958621,-0.79094412,9.83375037,0.05904,-1.2276,-0.39672,0
0.3858264,-0.75236148,9.90126999,0.06552,-1.19088,-0.45,0
0.37618074,-0.73307016,9.90126999,0.06048,-1.18152,-0.46656,0
0.34724376,-0.70413318,9.93020697,0.04032,-1.1736,-0.48312,0
0.36171225,-0.73789299,9.88197867,0.03744,-1.17864,-0.48744,0
0.33277527,-0.71860167,9.93020697,0.0396,-1.1808,-0.46152,0
0.36653508,-0.75718431,9.93020697,0.03456,-1.18152,-0.39168,0
0.36653508,-0.76200714,9.89162433,0.06552,-1.18656,-0.36864,0
0.2893698,-0.76682997,9.96878961,0.06048,-1.19232,-0.28872,0
0.33277527,-0.7716528,9.91091565,0.02664,-1.21104,-0.27144,0
0.35206659,-0.79576695,9.88197867,0.0468,-1.22328,-0.2448,0
0.32312961,-0.8198811,9.84821886,0.03096,-1.22976,-0.24264,0
0.37618074,-0.90186921,9.97361244,0.05328,-1.21104,-0.27,0
0.36653508,-0.84881808,9.98808093,0.04536,-1.22112,-0.31176,0
0.36171225,-0.82952676,9.89644716,0.05904,-1.23264,-0.34848,0
0.34724376,-0.81505827,9.92538414,0.03024,-1.19952,-0.36,0
0.40511772,-0.81023544,9.92538414,0.04824,-1.22112,-0.37944,0
0.31348395,-0.84881808,9.89162433,0.04896,-1.21392,-0.38736,0
0.40029489,-0.88740072,9.94467546,0.03384,-1.21536,-0.3636,0
0.39547206,-0.9163377,9.91573848,0.04608,-1.24704,-0.35496,0
0.43887753,-0.89222355,9.94467546,0.06552,-1.24344,-0.33984,0
0.48710583,-0.92116053,9.96878961,0.08208,-1.22328,-0.34128,0
0.49192866,-0.88257789,9.93020697,0.072,-1.20888,-0.51696,0
0.47263734,-0.80541261,9.90609282,0.0756,-1.2204,-0.39384,0
0.43887753,-0.83917242,9.90126999,0.07992,-1.19592,-0.41112,0
0.45816885,-0.76682997,9.90609282,0.08928,-1.19232,-0.44424,0
0.46299168,-0.7716528,9.91573848,0.0684,-1.19016,-0.46152,0
0.42440904,-0.78129846,9.91573848,0.05184,-1.21608,-0.4572,0
0.36171225,-0.70895601,9.93020697,0.06264,-1.20384,-0.46008,0
0.3858264,-0.71860167,9.89162433,0.05688,-1.17504,-0.44208,0
0.35206659,-0.78129846,9.93985263,0.0684,-1.20744,-0.396,0
0.34242093,-0.68001903,9.9350298,0.08568,-1.21752,-0.35424,0
0.31830678,-0.73307016,9.94949829,0.06768,-1.20744,-0.3024,0
0.34724376,-0.75236148,9.94467546,0.0684,-1.2276,-0.24192,0
0.30866112,-0.68484186,9.93985263,0.07056,-1.20888,-0.21816,0
0.32312961,-0.73789299,9.97361244,0.05976,-1.2492,-0.20088,0
0.34242093,-0.74753865,9.86751018,0.0576,-1.21608,-0.20664,0
0.34242093,-0.78612129,9.90126999,0.04968,-1.23552,-0.24192,0
0.35206659,-0.8198811,9.92538414,0.04248,-1.21896,-0.30168,0
0.37135791,-0.87293223,9.86268735,0.04752,-1.22328,-0.34488,0
0.44370036,-0.88257789,9.90126999,0.0504,-1.22832,-0.41904,0
0.41476338,-0.91151487,9.90126999,0.04392,-1.19664,-0.44136,0
0.34242093,-0.92116053,9.85304169,0.04896,-1.20096,-0.45288,0
0.35688942,-0.90669204,11.08286334,0.04968,-1.20096,-0.43632,0
0.39547206,-0.9163377,9.87233301,0.03456,-1.18872,-0.44064,0
0.36653508,-0.92598336,9.84821886,0.05544,-1.22544,-0.38448,0
0.44370036,-0.91151487,9.93020697,0.0972,-1.242,-0.3852,0
0.37618074,-0.8198811,9.90126999,0.0936,-1.23408,-0.36216,0
0.40029489,-0.80058978,9.89644716,0.09216,-1.21392,-0.38448,0
0.40511772,-0.7716528,9.92056131,0.07272,-1.20672,-0.37944,0
0.39064923,-0.74271582,9.89162433,0.09072,-1.20096,-0.42336,0
0.34724376,-0.68484186,9.94467546,0.07488,-1.20816,-0.4536,0
0.40029489,-0.70413318,9.96396678,0.05904,-1.19592,-0.48888,0
0.35688942,-0.67037337,9.90609282,0.05688,-1.20528,-0.51192,0
0.29419263,-0.67037337,9.96878961,0.05256,-1.20312,-0.47232,0
0.34242093,-0.67037337,9.93985263,0.05328,-1.2168,-0.43344,0
0.31348395,-0.69931035,9.91573848,0.05976,-1.23624,-0.41184,0
0.29901546,-0.6751962,9.82892754,0.04464,-1.24344,-0.33192,0
0.31348395,-0.79576695,9.85304169,0.07056,-1.23984,-0.28872,0
0.36171225,-0.71860167,9.91091565,0.0792,-1.23984,-0.216,0
0.38100357,-0.7234245,9.85786452,0.03816,-1.24776,-0.1908,0
0.40511772,-0.80541261,9.91091565,0.04968,-1.25064,-0.2016,0
0.36171225,-0.8198811,9.85786452,0.05544,-1.2348,-0.21816,0
0.36653508,-0.87775506,9.95914395,0.036,-1.2168,-0.23904,0
0.41958621,-0.89222355,9.87715584,0.0288,-1.23984,-0.32904,0
0.482283,-0.88257789,9.8868015,0.03096,-1.21536,-0.33984,0
0.46781451,-0.87775506,9.91091565,0.04968,-1.21536,-0.33264,0
0.47263734,-0.92116053,9.88197867,0.04752,-1.2132,-0.33912,0
0.38100357,-0.92598336,9.87715584,0.04392,-1.20024,-0.35496,0
0.49675149,-0.90669204,9.93020697,0.05832,-1.22184,-0.32832,0
0.44852319,-0.89222355,9.89644716,0.07416,-1.19736,-0.33552,0
0.43887753,-0.90186921,9.90126999,0.0828,-1.22328,-0.35424,0
0.45334602,-0.87775506,9.89162433,0.07056,-1.20672,-0.36432,0
0.4340547,-0.83917242,9.91573848,0.0684,-1.20096,-0.39456,0
0.42440904,-0.78129846,9.91573848,0.07488,-1.1952,-0.44424,0
0.39547206,-0.82470393,9.96396678,0.06408,-1.18296,-0.45288,0
0.41476338,-0.75718431,9.91573848,0.08064,-1.1916,-0.48456,0
0.39547206,-0.74271582,9.9350298,0.0612,-1.1736,-0.48024,0
0.29419263,-0.70413318,9.87715584,0.0612,-1.1916,-0.47448,0
0.35688942,-0.68484186,9.90126999,0.0576,-1.17576,-0.41904,0
0.31830678,-0.74753865,9.91573848,0.0468,-1.16928,-0.40464,0
0.31348395,-0.69448752,9.94467546,0.06552,-1.21104,-0.20376,0
0.29419263,-0.7716528,9.97843527,0.0396,-1.21248,-0.3312,0
0.37618074,-0.76200714,9.94467546,0.03744,-1.2132,-0.30096,0
0.42440904,-0.74271582,9.91573848,0.0576,-1.2132,-0.25992,0
0.40029489,-0.78129846,9.83375037,0.07704,-1.21896,-0.27576,0
0.42923187,-0.73307016,9.91091565,0.05976,-1.22544,-0.26064,0
0.47746017,-0.85364091,9.91573848,0.05616,-1.19664,-0.29664,0
0.36171225,-0.83917242,9.91573848,0.04032,-1.206,-0.3168,0
0.44852319,-0.90186921,9.90126999,0.054,-1.19952,-0.36,0
0.32312961,-0.86328657,9.92056131,0.04032,-1.18872,-0.36,0
0.39547206,-0.88740072,9.9350298,0.0468,-1.19304,-0.38808,0
0.37135791,-0.90186921,9.89644716,0.03168,-1.19736,-0.3744,0
0.39064923,-0.87293223,9.84821886,0.06336,-1.2168,-0.3492,0
0.42440904,-0.88740072,9.90609282,0.05976,-1.22112,-0.32256,0
0.39547206,-0.80058978,9.91091565,0.07416,-1.22616,-0.29952,0
0.33277527,-0.85846374,9.93020697,0.07056,-1.21536,-0.31032,0
0.33277527,-0.82952676,9.88197867,0.07704,-1.19664,-0.30672,0
0.3858264,-0.84399525,9.90126999,0.05616,-1.19376,-0.33912,0
0.34242093,-0.84399525,9.92056131,0.0792,-1.18584,-0.39888,0
0.31830678,-0.80058978,9.93020697,0.06192,-1.20456,-0.42984,0
0.31830678,-0.83434959,9.8868015,0.05904,-1.21392,-0.4644,0
0.32312961,-0.76200714,9.86268735,0.072,-1.19088,-0.48672,0
0.34724376,-0.72824733,9.92056131,0.05976,-1.17936,-0.4896,0
0.30383829,-0.76682997,9.94467546,0.06264,-1.19088,-0.43992,0
0.31830678,-0.78129846,9.96878961,0.0612,-1.20816,-0.40752,0
0.31348395,-0.75718431,9.92056131,0.05544,-1.224,-0.3816,0
0.29419263,-0.73789299,9.96396678,0.04104,-1.23552,-0.33984,0
0.3858264,-0.7716528,9.93020697,0.05976,-1.224,-0.31752,0
0.37135791,-0.74271582,9.8868015,0.08208,-1.2348,-0.30816,0
0.40511772,-0.73307016,9.89162433,0.09144,-1.22688,-0.30528,0
0.43887753,-0.7716528,9.90609282,0.08136,-1.21392,-0.3276,0
0.37135791,-0.76682997,9.90609282,0.0648,-1.23048,-0.3456,0
0.43887753,-0.78612129,9.92056131,0.0576,-1.22976,-0.35352,0
0.41958621,-0.82952676,9.91091565,0.03168,-1.2168,-0.35424,0
0.38100357,-0.84881808,9.93020697,0.02736,-1.21464,-0.36216,0
0.35206659,-0.80058978,9.93020697,0.054,-1.20672,-0.3456,0
0.3375981,-0.88257789,9.98808093,0.05472,-1.22112,-0.33984,0
0.36653508,-0.81505827,9.95432112,0.054,-1.2096,-0.30528,0
0.3858264,-0.84399525,9.96396678,0.04968,-1.23408,-0.31464,0
0.34724376,-0.82952676,9.93985263,0.07272,-1.2204,-0.30528,0
0.4340547,-0.84881808,9.94467546,0.06768,-1.22472,-0.33336,0
0.35688942,-0.87775506,9.96396678,0.05904,-1.22328,-0.32544,0
0.37618074,-0.84399525,9.93020697,0.06408,-1.2168,-0.33696,0
0.36171225,-0.85846374,9.98808093,0.0684,-1.21104,-0.36864,0
0.39547206,-0.80058978,9.97843527,0.07848,-1.21968,-0.41832,0
0.36653508,-0.77647563,9.9350298,0.05976,-1.22472,-0.4176,0
0.3858264,-0.80541261,9.84821886,0.03816,-1.22256,-0.45216,0
0.42440904,-0.80541261,9.93020697,0.06336,-1.21968,-0.4428,0
0.36653508,-0.79094412,9.91573848,0.04536,-1.19952,-0.4284,0
0.33277527,-0.7716528,9.9832581,0.06984,-1.21464,-0.39384,0
0.41958621,-0.7716528,9.91573848,0.04752,-1.21392,-0.38376,0
0.39547206,-0.73789299,9.91091565,0.05472,-1.21536,-0.34776,0
0.42923187,-0.77647563,9.90609282,0.05616,-1.22328,-0.35064,0
0.4340547,-0.78612129,9.89162433,0.03672,-1.21536,-0.3348,0
0.46299168,-0.79094412,9.91573848,0.03096,-1.20672,-0.3528,0
0.48710583,-0.74271582,9.93020697,0.04608,-1.21536,-0.35064,0
0.47746017,-0.74753865,9.92056131,0.04248,-1.21608,-0.3636,0
0.40994055,-0.78129846,9.89644716,0.04176,-1.19304,-0.38592,0
0.37618074,-0.83917242,9.93020697,0.072,-1.19232,-0.378,0
0.44852319,-0.8198811,9.84821886,0.0576,-1.20888,-0.37008,0
0.46299168,-0.85364091,9.96396678,0.03456,-1.206,-0.36144,0
0.41476338,-0.83434959,9.9350298,0.03096,-1.22256,-0.31752,0
0.44370036,-0.88740072,9.91573848,0.0468,-1.20528,-0.32688,0
0.40511772,-0.85364091,9.93020697,0.04464,-1.2024,-0.29592,0
0.41476338,-0.84399525,9.95432112,0.05328,-1.19736,-0.3132,0
0.45816885,-0.8681094,9.89644716,0.06192,-1.19952,-0.30168,0
0.39064923,-0.88740072,9.87715584,0.06048,-1.17864,-0.36936,0
0.40511772,-0.93562902,9.87233301,0.05904,-1.1916,-0.36648,0
0.42923187,-0.9163377,9.89162433,0.0468,-1.20312,-0.40464,0
0.40029489,-0.88740072,9.91091565,0.04824,-1.1844,-0.40248,0
0.30866112,-0.83434959,9.9350298,0.03024,-1.17576,-0.42336,0
0.29901546,-0.84399525,9.94467546,0.04536,-1.17072,-0.43992,0
0.29419263,-0.82952676,9.93985263,0.0684,-1.18224,-0.42768,0
0.23631867,-0.81023544,9.9832581,0.07128,-1.19304,-0.41328,0
0.26525565,-0.84881808,9.96396678,0.06984,-1.20024,-0.39888,0
0.30383829,-0.83434959,9.87233301,0.06048,-1.22544,-0.38304,0
0.34724376,-0.7716528,8.69073966,0.07344,-1.19664,-0.36144,0
0.32312961,-0.81505827,9.87233301,0.06408,-1.20816,-0.36576,0
0.33277527,-0.76682997,9.90126999,0.06408,-1.22184,-0.33264,0
0.34242093,-0.7716528,9.89644716,0.06984,-1.21536,-0.34704,0
0.30866112,-0.73789299,9.9350298,0.06552,-1.21752,-0.3564,0
0.33277527,-0.79576695,9.92538414,0.06264,-1.22256,-0.35064,0
0.37618074,-0.75236148,9.9350298,0.0576,-1.21968,-0.35784,0
0.38100357,-0.79576695,9.89644716,0.05832,-1.224,-0.34056,0
0.39547206,-0.78612129,9.91573848,0.072,-1.24704,-0.34632,0
0.36171225,-0.75236148,9.86751018,0.06192,-1.22112,-0.32976,0
0.40994055,-0.76200714,9.90609282,0.05328,-1.22544,-0.31824,0
0.37135791,-0.76682997,9.91573848,0.0504,-1.21392,-0.30888,0
0.38100357,-0.81023544,9.9350298,0.04608,-1.21464,-0.29448,0
0.40029489,-0.81505827,9.92538414,0.04824,-1.21968,-0.3096,0
0.34724376,-0.84399525,9.94467546,0.04824,-1.23264,-0.32184,0
0.33277527,-0.81505827,9.93020697,0.05616,-1.21176,-0.34416,0
0.31830678,-0.82470393,9.90609282,0.07056,-1.21608,-0.37368,0
0.36171225,-0.78612129,9.89644716,0.06048,-1.22904,-0.39168,0
0.33277527,-0.80058978,9.87233301,0.0648,-1.20096,-0.41544,0
0.32795244,-0.82952676,9.94949829,0.06192,-1.2168,-0.40392,0
0.38100357,-0.77647563,9.92056131,0.0432,-1.22616,-0.38808,0
0.33277527,-0.80058978,9.92056131,0.04464,-1.224,-0.39456,0
0.39064923,-0.84399525,9.95432112,0.06984,-1.2276,-0.39096,0
0.33277527,-0.82952676,9.89162433,0.0576,-1.23696,-0.38952,0
0.3375981,-0.79094412,9.93020697,0.0612,-1.21536,-0.38088,0
0.40511772,-0.74271582,9.92056131,0.07848,-1.22688,-0.38376,0
0.4340547,-0.78612129,9.94467546,0.07344,-1.23264,-0.4104,0
0.47746017,-0.75236148,9.92056131,0.06336,-1.206,-0.40752,0
0.47746017,-0.75236148,9.93020697,0.0576,-1.20672,-0.414,0
0.47263734,-0.71860167,9.89162433,0.03744,-1.22256,-0.4104,0
0.42923187,-0.75718431,9.94467546,0.0324,-1.21248,-0.41616,0
0.36653508,-0.78129846,9.90609282,0.0324,-1.1988,-0.39528,0
0.38100357,-0.75718431,9.92538414,0.04176,-1.21536,-0.37296,0
0.35688942,-0.78612129,9.91573848,0.0504,-1.2204,-0.3528,0
0.43887753,-0.79094412,9.90609282,0.06552,-1.20672,-0.3276,0
0.37618074,-0.78129846,9.91091565,0.05328,-1.24488,-0.2988,0
0.40029489,-0.74753865,9.92538414,0.04608,-1.23264,-0.28008,0
0.37618074,-0.76200714,9.95432112,0.05328,-1.20312,-0.27864,0
0.32312961,-0.83434959,9.90126999,0.05184,-1.206,-0.28368,0
0.35206659,-0.83434959,9.94467546,0.03024,-1.2096,-0.3168,0
0.37135791,-0.8681094,9.95432112,0.01224,-1.20888,-0.33264,0
0.3858264,-0.82470393,9.93985263,0.054,-1.22688,-0.34776,0
0.36171225,-0.8198811,9.90126999,0.0288,-1.23552,-0.35352,0
0.32312961,-0.82470393,9.90126999,0.05256,-1.22616,-0.53424,0
0.36653508,-0.82952676,9.93020697,0.06552,-1.22256,-0.35568,0
0.35688942,-0.81023544,9.90609282,0.05832,-1.2096,-0.35856,0
0.42923187,-0.8681094,9.94949829,0.0576,-1.20168,-0.34056,0
0.43887753,-0.90669204,9.95432112,0.0612,-1.24488,-0.33552,0
0.40511772,-0.87775506,9.8868015,0.0576,-1.23624,-0.32184,0
0.41476338,-0.79576695,11.10697749,0.06408,-1.20096,-0.32256,0
0.39064923,-0.84399525,9.94467546,0.0648,-1.1916,-0.35424,0
0.40029489,-0.83917242,9.93985263,0.07416,-1.19952,-0.38448,0
0.36653508,-0.8198811,9.90609282,0.06408,-1.1988,-0.37296,0
0.42923187,-0.82470393,9.9350298,0.05688,-1.2096,-0.41904,0
0.37135791,-0.77647563,9.93020697,0.04464,-1.2168,-0.41832,0
0.41476338,-0.75718431,9.93020697,0.04608,-1.19376,-0.4176,0
0.3858264,-0.78612129,9.89644716,0.07128,-1.2024,-0.40464,0
0.37618074,-0.76200714,9.88197867,0.06048,-1.2024,-0.3996,0
0.3375981,-0.81023544,9.87715584,0.06336,-1.206,-0.38808,0
0.36653508,-0.79576695,9.86751018,0.04968,-1.21248,-0.36144,0
0.35206659,-0.81505827,9.89644716,0.05544,-1.21032,-0.34992,0
0.37618074,-0.86328657,9.92056131,0.072,-1.2024,-0.33264,0
0.35688942,-0.87775506,10.00254942,0.07344,-1.2132,-0.31896,0
0.38100357,-0.83434959,9.96878961,0.05256,-1.20384,-0.31176,0
0.35206659,-0.81023544,9.91091565,0.06336,-1.2204,-0.32976,0
0.36653508,-0.83917242,9.90126999,0.07704,-1.21968,-0.33984,0
0.38100357,-0.85846374,9.90609282,0.0684,-1.19448,-0.32616,0
0.35206659,-0.80541261,9.90126999,0.054,-1.20168,-0.33984,0
0.35688942,-0.82470393,9.94467546,0.04896,-1.20456,-0.35424,0
0.35688942,-0.84881808,9.9350298,0.05616,-1.22256,-0.37008,0
0.34242093,-0.8198811,9.87715584,0.07272,-1.21392,-0.3456,0
0.32795244,-0.8198811,9.9350298,0.08064,-1.2348,-0.39384,0
0.38100357,-0.85364091,9.93020697,0.05544,-1.20744,-0.38448,0
0.36653508,-0.82952676,9.93020697,0.07128,-1.21032,-0.36936,0
0.3375981,-0.83434959,9.94949829,0.072,-1.21176,-0.37584,0
0.40994055,-0.81505827,9.90609282,0.08208,-1.21536,-0.36864,0
0.40029489,-0.82470393,9.91573848,0.06336,-1.2024,-0.38952,0
0.36171225,-0.78612129,9.87233301,0.07776,-1.22184,-0.40896,0
0.37618074,-0.78129846,9.93020697,0.05472,-1.224,-0.3816,0
0.41958621,-0.81023544,9.90126999,0.05832,-1.2024,-0.396,0
0.39064923,-0.83434959,9.94949829,0.05112,-1.19736,-0.41256,0
0.38100357,-0.75718431,9.9350298,0.05904,-1.18728,-0.4104,0
0.35688942,-0.77647563,9.8868015,0.04536,-1.19088,-0.39312,0
0.34724376,-0.76682997,9.89644716,0.06696,-1.20024,-0.38736,0
0.35206659,-0.78129846,9.94949829,0.06264,-1.20024,-0.3816,0
0.37135791,-0.75718431,9.91091565,0.06552,-1.21968,-0.38304,0
0.37618074,-0.81505827,9.92538414,0.054,-1.21176,-0.37656,0
0.3375981,-0.78129846,9.92538414,0.05112,-1.2132,-0.36072,0
0.37618074,-0.75718431,9.89162433,0.05112,-1.20744,-0.37944,0
0.2893698,-0.79576695,9.92538414,0.06192,-1.21248,-0.3744,0
0.36171225,-0.7716528,9.89644716,0.05256,-1.22328,-0.38232,0
0.32312961,-0.80058978,9.87233301,0.036,-1.22256,-0.36216,0
0.40994055,-0.80541261,9.90609282,0.0432,-1.21176,-0.3564,0
0.39064923,-0.84399525,9.94467546,0.04392,-1.21032,-0.33984,0
0.37135791,-0.79576695,9.87715584,0.054,-1.2276,-0.30384,0
0.39064923,-0.81505827,9.92056131,0.05472,-1.21824,-0.31752,0
0.40511772,-0.82952676,9.9350298,0.05112,-1.23768,-0.34272,0
0.43887753,-0.86328657,9.8868015,0.08352,-1.22328,-0.34632,0
0.44370036,-0.79094412,9.91091565,0.08064,-1.23696,-0.36576,0
0.39064923,-0.79576695,9.89644716,0.06048,-1.22616,-0.38304,0
0.37135791,-0.80541261,9.92056131,0.05976,-1.20456,-0.3888,0
0.4340547,-0.83434959,9.92538414,0.04464,-1.18656,-0.39168,0
0.41958621,-0.85846374,9.93985263,0.06192,-1.2168,-0.37368,0
0.40511772,-0.82952676,9.91573848,0.05904,-1.21608,-0.3852,0
0.38100357,-0.83917242,9.93985263,0.06264,-1.21176,-0.35352,0
0.37618074,-0.78612129,9.91091565,0.07056,-1.20528,-0.37296,0
0.32312961,-0.80541261,9.92056131,0.06696,-1.21968,-0.34128,0
0.42440904,-0.79576695,9.93985263,0.06984,-1.20744,-0.35496,0
0.3858264,-0.77647563,9.88197867,0.0504,-1.19952,-0.34776,0
0.35206659,-0.80058978,9.88197867,0.03744,-1.18656,-0.36072,0
0.36653508,-0.79576695,9.91573848,0.03456,-1.19304,-0.35712,0
0.36653508,-0.81023544,10.01219508,0.04392,-1.21608,-0.38952,0
0.36653508,-0.77647563,9.92056131,0.0612,-1.2132,-0.39456,0
0.3858264,-0.76200714,9.95432112,0.06048,-1.20312,-0.3852,0
0.34724376,-0.79576695,9.92056131,0.04176,-1.20096,-0.37584,0
0.3858264,-0.76682997,9.91091565,0.06984,-1.20096,-0.37152,0
0.40029489,-0.7716528,9.91573848,0.05832,-1.20456,-0.35568,0
0.36171225,-0.79576695,9.89162433,0.04176,-1.21248,-0.35496,0
0.35688942,-0.78129846,9.95432112,0.05112,-1.206,-0.32616,0
0.37135791,-0.80058978,9.86268735,0.06192,-1.22328,-0.32544,0
0.40029489,-0.82470393,11.10215466,0.0684,-1.2024,-0.33912,0
0.38100357,-0.76682997,9.93985263,0.06552,-1.21824,-0.3492,0
0.37618074,-0.75236148,9.93985263,0.06768,-1.21032,-0.33984,0
0.36653508,-0.79576695,9.89162433,0.04968,-1.21104,-0.37008,0
0.35688942,-0.82952676,9.94467546,0.07056,-1.2096,-0.40248,0
0.3858264,-0.80541261,8.66662551,0.06336,-1.21824,-0.40104,0
0.34242093,-0.81023544,9.89162433,0.05904,-1.2096,-0.38016,0
0.33277527,-0.80541261,9.88197867,0.06408,-1.1988,-0.36936,0
0.30866112,-0.78129846,9.96878961,0.04752,-1.20888,-0.35136,0
0.3375981,-0.80058978,9.94467546,0.0612,-1.20672,-0.36072,0
0.37618074,-0.80058978,9.92056131,0.06408,-1.19304,-0.35568,0
0.37618074,-0.78129846,9.9350298,0.05904,-1.2132,-0.35424,0
0.38100357,-0.78612129,9.93985263,0.0612,-1.21104,-0.34992,0
0.36171225,-0.78129846,9.93985263,0.0504,-1.21896,-0.36792,0
0.32795244,-0.81023544,9.91091565,0.0396,-1.22328,-0.37008,0
0.36171225,-0.79576695,9.94949829,0.0432,-1.2348,-0.37368,0
0.3858264,-0.80058978,9.92538414,0.04608,-1.21608,-0.39024,0
0.29901546,-0.79576695,9.92056131,0.03888,-1.20456,-0.38376,0
0.35688942,-0.79094412,9.96878961,0.06192,-1.24488,-0.38448,0
0.35206659,-0.8198811,9.84821886,0.05688,-1.22904,-0.3528,0
0.3375981,-0.79576695,9.91091565,0.08712,-1.2276,-0.3492,0
0.38100357,-0.79094412,9.96396678,0.07128,-1.23336,-0.31608,0
0.39064923,-0.82952676,9.95914395,0.05688,-1.22184,-0.33336,0
0.41958621,-0.85846374,9.92538414,0.07992,-1.22472,-0.31968,0
0.38100357,-0.81023544,9.92056131,0.05904,-1.24344,-0.3312,0
0.42440904,-0.84399525,9.94467546,0.05832,-1.1952,-0.35496,0
0.48710583,-0.90186921,9.92538414,0.0648,-1.18656,-0.36576,0
0.39064923,-0.89704638,9.92056131,0.04032,-1.19448,-0.40824,0
0.42923187,-0.83917242,9.93020697,0.05112,-1.20816,-0.40752,0
0.37135791,-0.81505827,9.91573848,0.04968,-1.20672,-0.4284,0
0.3858264,-0.82470393,9.90609282,0.0648,-1.20312,-0.40752,0
0.36171225,-0.83434959,9.94467546,0.04896,-1.19448,-0.37728,0
0.37135791,-0.78612129,9.95914395,0.0684,-1.20312,-0.38448,0
0.38100357,-0.78129846,9.91091565,0.06984,-1.1952,-0.35928,0
0.4340547,-0.77647563,9.93020697,0.06264,-1.21536,-0.37584,0
0.36653508,-0.77647563,9.9350298,0.05328,-1.20456,-0.3672,0
0.35206659,-0.78612129,9.87715584,0.0828,-1.18728,-0.37512,0
0.34724376,-0.76682997,9.89162433,0.06192,-1.18872,-0.38448,0
0.35206659,-0.76200714,9.94467546,0.04608,-1.20528,-0.40392,0
0.34242093,-0.77647563,9.89644716,0.04104,-1.1916,-0.37872,0
0.40994055,-0.75236148,9.91573848,0.05472,-1.19232,-0.37224,0
0.40994055,-0.83434959,9.96396678,0.0504,-1.2096,-0.34992,0
0.44370036,-0.80541261,9.91091565,0.05184,-1.20672,-0.33336,0
0.40994055,-0.76682997,9.9350298,0.05184,-1.22688,-0.32328,0
0.3858264,-0.77647563,9.87715584,0.05544,-1.22256,-0.3204,0
0.36653508,-0.76200714,9.9350298,0.06192,-1.2096,-0.32472,0
0.39064923,-0.85846374,9.94467546,0.0612,-1.224,-0.33696,0
0.42440904,-0.82952676,9.87715584,0.05184,-1.23552,-0.33984,0
0.35688942,-0.86328657,9.95432112,0.05112,-1.23048,-0.34488,0
0.3858264,-0.87293223,9.95914395,0.04032,-1.19088,-0.3924,0
0.35206659,-0.82952676,9.96878961,0.0396,-1.20744,-0.38952,0
0.39547206,-0.85364091,9.87233301,0.04896,-1.2096,-0.36792,0
0.36171225,-0.80541261,9.93020697,0.06336,-1.18872,-0.37224,0
0.39064923,-0.8198811,9.92538414,0.06192,-1.20456,-0.38088,0
0.40029489,-0.78129846,9.94467546,0.06336,-1.19016,-0.34416,0
0.37618074,-0.79094412,9.9350298,0.05904,-1.19808,-0.3528,0
0.36653508,-0.81023544,9.93985263,0.07344,-1.21464,-0.36792,0
0.34724376,-0.75236148,9.96396678,0.08352,-1.22112,-0.37296,0
0.30383829,-0.78612129,9.92056131,0.0468,-1.19376,-0.36648,0
0.31830678,-0.78612129,9.93020697,0.06768,-1.20744,-0.39456,0
0.3858264,-0.78129846,9.93985263,0.05256,-1.18944,-0.39888,0
0.38100357,-0.77647563,9.8868015,0.04608,-1.19232,-0.4032,0
0.3375981,-0.75718431,9.96878961,0.06768,-1.20888,-0.3744,0
0.31830678,-0.79576695,9.90609282,0.03888,-1.20744,-0.36072,0
0.34242093,-0.81505827,9.93020697,0.04248,-1.2096,-0.32472,0
0.38100357,-0.83434959,9.9350298,0.04896,-1.22904,-0.3096,0
0.39547206,-0.80058978,9.92538414,0.054,-1.21752,-0.3168,0
0.3375981,-0.83434959,9.86751018,0.04752,-1.21176,-0.31896,0
0.35206659,-0.80058978,8.67627117,0.054,-1.22616,-0.32832,0
0.40029489,-0.81023544,9.93985263,0.05616,-1.21752,-0.33408,0
0.35688942,-0.88257789,9.97843527,0.06048,-1.20528,-0.36504,0
0.39064923,-0.86328657,9.96878961,0.04824,-1.20888,-0.36216,0
0.36171225,-0.79576695,9.8868015,0.07056,-1.2132,-0.37008,0
0.32312961,-0.88257789,9.99772659,0.05256,-1.22112,-0.37656,0
0.34242093,-0.84399525,9.92056131,0.0576,-1.22472,-0.37656,0
0.40029489,-0.88257789,9.91573848,0.0468,-1.2276,-0.40968,0
0.34724376,-0.80541261,9.91573848,0.06696,-1.21464,-0.36072,0
0.42923187,-0.89704638,9.92538414,0.072,-1.20024,-0.37296,0
0.35688942,-0.8198811,9.93020697,0.07416,-1.224,-0.39672,0
0.35206659,-0.83434959,9.90609282,0.06048,-1.18728,-0.39312,0
0.36171225,-0.80541261,9.97361244,0.06768,-1.22328,-0.39456,0
0.39547206,-0.81023544,9.93985263,0.06408,-1.21968,-0.396,0
0.34724376,-0.7716528,9.92056131,0.04752,-1.20456,-0.40392,0
0.36171225,-0.77647563,9.92056131,0.0504,-1.21176,-0.41328,0
0.33277527,-0.76682997,9.94949829,0.06192,-1.21032,-0.39456,0
0.35688942,-0.75718431,9.8868015,0.06192,-1.21752,-0.38664,0
0.39064923,-0.79576695,9.93985263,0.054,-1.2492,-0.3672,0
0.35688942,-0.78129846,9.94949829,0.05544,-1.23696,-0.35784,0
0.39547206,-0.73307016,9.95914395,0.06192,-1.2492,-0.34344,0
0.40029489,-0.75236148,9.92056131,0.05328,-1.21176,-0.34272,0
0.40029489,-0.78612129,9.91091565,0.06408,-1.22184,-0.3636,0
0.47263734,-0.75718431,9.89162433,0.06336,-1.22112,-0.35856,0
0.482283,-0.86328657,9.89644716,0.0432,-1.21464,-0.38088,0
0.40029489,-0.82952676,9.98808093,0.05544,-1.20024,-0.37512,0
0.39547206,-0.82952676,9.92056131,0.0684,-1.20096,-0.40032,0
0.40511772,-0.85846374,9.95432112,0.06768,-1.19736,-0.37368,0
0.34724376,-0.91151487,9.92056131,0.0504,-1.19808,-0.3708,0
0.38100357,-0.83917242,9.93020697,0.04896,-1.2204,-0.36072,0
0.37135791,-0.85364091,9.97843527,0.05256,-1.20168,-0.34416,0
0.39547206,-0.86328657,9.96878961,0.072,-1.20168,-0.34488,0
0.3858264,-0.78612129,9.92538414,0.08784,-1.2024,-0.35064,0
0.3375981,-0.7234245,9.93020697,0.06984,-1.19232,-0.3744,0
0.40511772,-0.80541261,9.91091565,0.08064,-1.21968,-0.38736,0
0.35688942,-0.7716528,9.94949829,0.06336,-1.1808,-0.39528,0
0.39547206,-0.73307016,9.93020697,0.03744,-1.21176,-0.3996,0
0.3858264,-0.74753865,9.90126999,0.04464,-1.2024,-0.40608,0
0.35206659,-0.73307016,9.90609282,0.06768,-1.2312,-0.414,0
0.37618074,-0.7234245,9.94949829,0.02232,-1.2132,-0.39888,0
0.47746017,-0.73307016,9.92056131,0.05688,-1.21536,-0.35496,0
0.44370036,-0.75718431,9.90609282,0.06192,-1.23336,-0.34776,0
0.40994055,-0.75718431,9.87233301,0.0468,-1.23552,-0.33552,0
0.44370036,-0.74753865,9.91091565,0.04104,-1.18584,-0.31824,0
0.39064923,-0.77647563,9.90609282,0.04608,-1.2096,-0.31176,0
0.41958621,-0.78129846,9.91573848,0.0504,-1.22256,-0.28224,0
0.34724376,-0.81023544,9.90609282,0.03672,-1.21392,-0.30168,0
0.3858264,-0.78129846,9.91091565,0.04176,-1.19448,-0.3132,0
0.37135791,-0.80541261,9.90126999,0.05544,-1.20384,-0.32256,0
0.3375981,-0.80541261,9.92056131,0.04392,-1.19448,-0.33408,0
0.30866112,-0.86328657,9.97361244,0.03744,-1.1916,-0.33696,0
0.29419263,-0.8681094,9.92538414,0.04392,-1.17216,-0.34704,0
0.27972414,-0.90669204,9.91091565,0.05688,-1.19088,-0.35784,0
0.30866112,-0.86328657,9.91573848,0.06048,-1.206,-0.36288,0
0.36171225,-0.88740072,9.89162433,0.0504,-1.20096,-0.35136,0
0.3375981,-0.84881808,9.91573848,0.0576,-1.188,-0.37944,0
0.32312961,-0.83434959,9.92056131,0.07704,-1.2312,-0.37224,0
0.30383829,-0.80058978,9.89162433,0.07344,-1.21176,-0.39456,0
0.37618074,-0.76200714,9.89644716,0.08064,-1.21752,-0.39888,0
0.34724376,-0.83434959,9.94949829,0.054,-1.2276,-0.39528,0
0.45816885,-0.79576695,9.92056131,0.06624,-1.22616,-0.38664,0
0.44852319,-0.81505827,9.90609282,0.05472,-1.21392,-0.38448,0
0.40994055,-0.77647563,9.95432112,0.03744,-1.22904,-0.39384,0
0.43887753,-0.76682997,9.90126999,0.05832,-1.22184,-0.40536,0
0.41476338,-0.73789299,9.93020697,0.05904,-1.21608,-0.38304,0
0.38100357,-0.81505827,9.98808093,0.05616,-1.21968,-0.37368,0
0.35206659,-0.80058978,9.93020697,0.04536,-1.20672,-0.34632,0
0.36171225,-0.78612129,9.89644716,0.06336,-1.19664,-0.34128,0
0.36171225,-0.7716528,8.66180268,0.05688,-1.21536,-0.3276,0
0.38100357,-0.79576695,9.93985263,0.0504,-1.21104,-0.32544,0
0.40029489,-0.84881808,9.96396678,0.04968,-1.23048,-0.32904,0
0.37135791,-0.84399525,9.92056131,0.0576,-1.21968,-0.31968,0
0.40511772,-0.8681094,9.96396678,0.0468,-1.22256,-0.33552,0
0.40994055,-0.82470393,9.88197867,0.05256,-1.21896,-0.32904,0
0.36653508,-0.88257789,9.93985263,0.06984,-1.22616,-0.34128,0
0.35688942,-0.85364091,9.88197867,0.0612,-1.23696,-0.32184,0
0.36171225,-0.85846374,9.94467546,0.07128,-1.23912,-0.54216,0
0.42440904,-0.86328657,9.96878961,0.06408,-1.206,-0.35424,0
0.40029489,-0.79576695,9.89162433,0.08784,-1.224,-0.3744,0
0.40029489,-0.78612129,9.95432112,0.054,-1.21464,-0.38232,0
0.33277527,-0.83917242,9.94949829,0.06912,-1.2132,-0.3996,0
0.42923187,-0.81023544,9.91573848,0.07632,-1.20744,-0.39096,0
0.41958621,-0.83434959,9.91573848,0.05976,-1.22328,-0.4032,0
0.41958621,-0.82470393,9.9350298,0.0684,-1.20672,-0.42048,0
0.45334602,-0.78612129,9.9350298,0.0648,-1.21464,-0.40824,0
0.46781451,-0.79094412,9.92538414,0.07632,-1.20096,-0.39888,0
0.42923187,-0.81023544,9.91573848,0.05832,-1.2096,-0.40176,0
0.42440904,-0.78129846,9.89644716,0.054,-1.20024,-0.41688,0
0.40511772,-0.78129846,9.92538414,0.04608,-1.21176,-0.40752,0
0.34242093,-0.81023544,9.88197867,0.04536,-1.19376,-0.41904,0
0.42440904,-0.74271582,9.8868015,0.0612,-1.2168,-0.39312,0
0.35688942,-0.74271582,9.91091565,0.0468,-1.21032,-0.3744,0
0.3375981,-0.74271582,9.95432112,0.05544,-1.1916,-0.32904,0
0.41958621,-0.77647563,9.91573848,0.06624,-1.20168,-0.31536,0
0.33277527,-0.79094412,9.93020697,0.05976,-1.20168,-0.29232,0
0.37618074,-0.82470393,9.95914395,0.05256,-1.21464,-0.3168,0
0.31348395,-0.86328657,9.94467546,0.054,-1.22688,-0.306,0
0.34242093,-0.82952676,9.86268735,0.05328,-1.20672,-0.34416,0
0.37135791,-0.79576695,9.94467546,0.05328,-1.19808,-0.35928,0
0.37618074,-0.83434959,9.95914395,0.06336,-1.23264,-0.37512,0
0.3375981,-0.82470393,9.93985263,0.05544,-1.22688,-0.378,0
0.33277527,-0.80058978,9.97843527,0.07344,-1.20456,-0.37944,0
0.3858264,-0.8198811,9.91091565,0.04464,-1.21176,-0.38808,0
0.36653508,-0.86328657,9.93985263,0.03816,-1.21536,-0.3672,0
0.40029489,-0.76200714,9.92056131,0.06624,-1.18728,-0.36504,0
0.3858264,-0.78612129,9.95432112,0.05832,-1.19016,-0.35352,0
0.3858264,-0.75236148,9.95914395,0.072,-1.2204,-0.3528,0
0.39547206,-0.77647563,9.9350298,0.05904,-1.20456,-0.36288,0
0.40511772,-0.8198811,9.91091565,0.06408,-1.206,-0.37944,0
0.31830678,-0.7716528,9.96878961,0.05616,-1.20384,-0.39384,0
0.34242093,-0.76200714,9.96878961,0.04248,-1.20816,-0.39816,0
0.39547206,-0.80058978,9.95432112,0.05112,-1.20456,-0.39168,0
0.32795244,-0.79094412,9.90126999,0.03528,-1.2024,-0.36576,0
0.34242093,-0.75236148,9.9350298,0.05544,-1.20672,-0.1908,0
0.36653508,-0.77647563,9.94949829,0.03096,-1.1988,-0.3384,0
0.3375981,-0.79094412,9.97843527,0.02952,-1.21248,-0.35064,0
0.34242093,-0.76682997,9.95432112,0.03888,-1.21392,-0.32544,0
0.30383829,-0.83434959,9.94467546,0.03816,-1.22184,-0.33696,0
0.32795244,-0.79094412,9.94949829,0.02808,-1.2528,-0.35208,0
0.34724376,-0.80541261,9.95432112,0.04752,-1.22256,-0.36072,0
0.39547206,-0.79094412,9.93985263,0.05904,-1.21896,-0.35784,0
0.32312961,-0.78129846,9.9350298,0.05544,-1.24128,-0.35928,0
0.39064923,-0.8198811,9.92538414,0.0504,-1.22616,-0.35208,0
0.35688942,-0.79576695,9.91091565,0.03168,-1.19952,-0.34776,0
0.3375981,-0.80058978,9.92538414,0.05256,-1.23624,-0.3456,0
0.37135791,-0.87293223,9.9832581,0.05688,-1.24128,-0.36792,0
0.36171225,-0.85846374,9.94949829,0.07344,-1.22328,-0.36432,0
0.3858264,-0.83917242,10.02184074,0.0468,-1.23264,-0.36504,0
0.40511772,-0.82470393,9.87715584,0.0756,-1.2168,-0.4068,0
0.37618074,-0.83917242,9.94467546,0.06264,-1.22976,-0.37872,0
0.39064923,-0.83917242,9.97843527,0.07344,-1.22328,-0.38016,0
0.37618074,-0.78612129,9.89644716,0.0432,-1.20672,-0.38736,0
0.3858264,-0.76682997,9.9350298,0.04752,-1.23336,-0.36576,0
0.42923187,-0.83917242,9.89162433,0.06192,-1.21248,-0.36288,0
0.37135791,-0.7716528,9.90609282,0.08568,-1.21104,-0.35064,0
0.31348395,-0.79094412,9.98808093,0.06264,-1.20888,-0.34488,0
0.35206659,-0.83434959,9.98808093,0.06048,-1.2096,-0.33624,0
0.39547206,-0.85846374,9.96396678,0.054,-1.22904,-0.32832,0
0.39547206,-0.82470393,9.99772659,0.06696,-1.2096,-0.324,0
0.42440904,-0.78129846,9.92056131,0.0936,-1.20672,-0.34848,0
0.34724376,-0.82952676,9.90126999,0.05904,-1.2312,-0.33696,0
0.36171225,-0.80541261,8.65215702,0.05184,-1.20024,-0.36864,0
0.40511772,-0.8198811,9.92538414,0.07128,-1.19664,-0.36072,0
0.34242093,-0.84399525,9.95914395,0.03888,-1.20096,-0.3636,0
0.40511772,-0.85846374,9.97361244,0.03168,-1.206,-0.3708,0
0.37618074,-0.82470393,9.9350298,0.04536,-1.20384,-0.37584,0
0.40029489,-0.81505827,9.9350298,0.06048,-1.20456,-0.37584,0
0.38100357,-0.81505827,9.90609282,0.04536,-1.20456,-0.37656,0
0.37135791,-0.85364091,9.93985263,0.06336,-1.21968,-0.36936,0
0.44852319,-0.84399525,9.93985263,0.072,-1.21824,-0.3708,0
0.40029489,-0.83434959,9.91573848,0.07272,-1.22616,-0.35496,0
0.37135791,-0.82952676,9.92056131,0.0648,-1.20456,-0.35856,0
0.4340547,-0.80541261,9.91573848,0.06408,-1.19088,-0.36432,0
0.40994055,-0.84399525,9.94949829,0.05616,-1.19448,-0.37728,0
0.42923187,-0.79576695,9.89644716,0.05256,-1.19376,-0.3888,0
0.37618074,-0.77647563,9.94949829,0.08064,-1.19808,-0.3888,0
0.35688942,-0.76200714,9.97843527,0.0504,-1.18872,-0.3996,0
0.41476338,-0.7716528,9.95432112,0.05184,-1.19232,-0.38664,0
0.37618074,-0.77647563,9.91091565,0.05976,-1.1808,-0.40536,0
0.34242093,-0.80058978,9.91091565,0.08352,-1.18512,-0.38592,0
0.40029489,-0.8198811,9.91091565,0.03816,-1.18512,-0.378,0
0.3375981,-0.81505827,9.95914395,0.0576,-1.2132,-0.37584,0
0.30383829,-0.81505827,9.87233301,0.0504,-1.20384,-0.36648,0
0.29419263,-0.82470393,9.91091565,0.05976,-1.18584,-0.38952,0
0.30866112,-0.82952676,9.92538414,0.06048,-1.21464,-0.34848,0
0.29901546,-0.82470393,9.90126999,0.07272,-1.23192,-0.35064,0
0.36653508,-0.75236148,9.89644716,0.06912,-1.22328,-0.35856,0
0.37135791,-0.73307016,9.96878961,0.03816,-1.21032,-0.33552,0
0.40511772,-0.78612129,9.93985263,0.05544,-1.2096,-0.33192,0
0.39547206,-0.81023544,9.92538414,0.07344,-1.22904,-0.35136,0
0.40029489,-0.8198811,9.92538414,0.06624,-1.21752,-0.34488,0
0.34724376,-0.82470393,9.93020697,0.06696,-1.21392,-0.35856,0
0.3858264,-0.79576695,11.10697749,0.05688,-1.2096,-0.38664,0
0.44370036,-0.81505827,9.9350298,0.05184,-1.2204,-0.38304,0
0.40994055,-0.7716528,9.91091565,0.05328,-1.19448,-0.38952,0
0.36171225,-0.84881808,9.97361244,0.04824,-1.21392,-0.37656,0
0.3858264,-0.8198811,9.91573848,0.0432,-1.188,-0.37656,0
0.35206659,-0.85364091,9.96396678,0.0648,-1.21104,-0.36936,0
0.35206659,-0.79576695,9.92056131,0.07992,-1.19592,-0.37224,0
0.35688942,-0.77647563,9.94467546,0.04896,-1.20816,-0.39384,0
0.37135791,-0.82952676,9.89644716,0.05616,-1.20168,-0.39528,0
0.31830678,-0.79094412,9.9350298,0.06408,-1.21104,-0.39744,0
0.36653508,-0.81505827,9.87233301,0.05832,-1.1952,-0.396,0
0.36653508,-0.74271582,9.90126999,0.06264,-1.206,-0.39456,0
0.3375981,-0.79094412,9.9350298,0.06408,-1.20744,-0.3996,0
0.3375981,-0.74271582,9.95432112,0.05616,-1.21176,-0.3816,0
0.37618074,-0.79094412,9.93020697,0.03888,-1.23264,-0.37368,0
0.37135791,-0.75236148,9.9350298,0.03744,-1.23264,-0.37368,0
0.41476338,-0.80541261,9.8868015,0.06768,-1.2276,-0.33552,0
0.41476338,-0.80058978,9.92538414,0.06408,-1.23696,-0.33912,0
0.37618074,-0.76200714,9.90609282,0.06336,-1.2492,-0.3204,0
0.41958621,-0.80541261,9.87715584,0.06552,-1.21824,-0.32544,0
0.45334602,-0.79576695,9.94949829,0.04464,-1.224,-0.3312,0
0.47746017,-0.81023544,9.94949829,0.04176,-1.21464,-0.3204,0
0.41476338,-0.8681094,9.8868015,0.03528,-1.22112,-0.3672,0
0.38100357,-0.86328657,9.96396678,0.04176,-1.2096,-0.342,0
0.40511772,-0.85364091,9.93020697,0.03384,-1.21824,-0.33552,0
0.37618074,-0.85846374,9.95914395,0.05688,-1.22328,-0.34416,0
0.41958621,-0.84399525,9.88197867,0.0648,-1.24056,-0.33912,0
0.38100357,-0.87775506,9.96396678,0.06912,-1.20384,-0.35352,0
0.42923187,-0.89222355,9.93020697,0.04824,-1.2096,-0.36072,0
0.38100357,-0.84881808,9.94467546,0.05688,-1.2024,-0.55296,0
0.39064923,-0.78612129,9.84821886,0.0576,-1.20456,-0.37872,0
0.35688942,-0.78129846,9.94467546,0.06192,-1.1988,-0.38304,0
0.39064923,-0.75718431,9.91573848,0.05904,-1.21248,-0.39888,0
0.27007848,-0.79094412,9.98808093,0.0648,-1.20816,-0.3996,0
0.35206659,-0.78612129,9.86751018,0.05976,-1.22256,-0.396,0
0.33277527,-0.80058978,9.92538414,0.06264,-1.21104,-0.3744,0
0.36653508,-0.78129846,9.91091565,0.05904,-1.18512,-0.36432,0
0.36171225,-0.78612129,9.90126999,0.04968,-1.22112,-0.36792,0
0.38100357,-0.78129846,9.95432112,0.05832,-1.2132,-0.32184,0
0.42923187,-0.76200714,9.95432112,0.06336,-1.21248,-0.32904,0
0.42440904,-0.82470393,9.89644716,0.0648,-1.2312,-0.3204,0
0.44852319,-0.84881808,9.94467546,0.06408,-1.22544,-0.31248,0
0.43887753,-0.8198811,9.93020697,0.06912,-1.20672,-0.33912,0
0.49675149,-0.78129846,9.94467546,0.0828,-1.21248,-0.33768,0
0.40994055,-0.85364091,9.94949829,0.04608,-1.19448,-0.36288,0
0.37618074,-0.8681094,9.96396678,0.06336,-1.1988,-0.37656,0
0.38100357,-0.84881808,9.9350298,0.05976,-1.19088,-0.38592,0
0.41476338,-0.83917242,9.94949829,0.06048,-1.19664,-0.38016,0
0.32312961,-0.84881808,9.93020697,0.04968,-1.2096,-0.36936,0
0.3375981,-0.78612129,9.94467546,0.04752,-1.20672,-0.38448,0
0.33277527,-0.82952676,9.8868015,0.05616,-1.20312,-0.3672,0
0.27972414,-0.78612129,9.97361244,0.07848,-1.20312,-0.35208,0
0.29419263,-0.82952676,9.8868015,0.0504,-1.21104,-0.36144,0
0.2893698,-0.84399525,9.94467546,0.0432,-1.19592,-0.37224,0
0.2893698,-0.80541261,9.96878961,0.07056,-1.2168,-0.39168,0
0.3375981,-0.78129846,9.92538414,0.06984,-1.20528,-0.41616,0
0.33277527,-0.78612129,9.96878961,0.07344,-1.2096,-0.41328,0
0.37618074,-0.75718431,9.95432112,0.06048,-1.2096,-0.42264,0
0.35688942,-0.70895601,9.92056131,0.05688,-1.2276,-0.41616,0
0.3858264,-0.76200714,9.92056131,0.04896,-1.19232,-0.37656,0
0.34242093,-0.80058978,9.88197867,0.06336,-1.22256,-0.37008,0
0.31830678,-0.73307016,9.94467546,0.04464,-1.20888,-0.33768,0
0.41476338,-0.77647563,9.91091565,0.06624,-1.22256,-0.3204,0
0.37135791,-0.79576695,9.90126999,0.06192,-1.22904,-0.32256,0
0.3858264,-0.77647563,9.95914395,0.04968,-1.23048,-0.32112,0
0.38100357,-0.82952676,9.92056131,0.05832,-1.23264,-0.34272,0
0.40029489,-0.82952676,9.90126999,0.054,-1.23408,-0.3348,0
0.35688942,-0.81505827,9.93985263,0.04536,-1.206,-0.32832,0
0.40994055,-0.79576695,9.97361244,0.03888,-1.21248,-0.33984,0
0.35688942,-0.82470393,9.87715584,0.02664,-1.19808,-0.37512,0
0.32312961,-0.85364091,9.99290376,0.04896,-1.21824,-0.34992,0
0.39547206,-0.8681094,9.9832581,0.05184,-1.224,-0.39096,0
0.35206659,-0.85846374,9.93985263,0.06984,-1.2204,-0.39816,0
0.37618074,-0.79576695,9.92056131,0.06264,-1.20888,-0.39024,0
0.35206659,-0.79094412,9.91091565,0.05472,-1.23264,-0.40536,0
0.36171225,-0.7716528,9.94949829,0.0756,-1.22112,-0.41328,0
0.37618074,-0.79576695,9.90126999,0.05976,-1.23048,-0.3888,0
0.36653508,-0.78129846,9.94467546,0.05472,-1.22544,-0.3744,0
0.37135791,-0.81023544,9.87715584,0.08856,-1.21896,-0.37872,0
0.36171225,-0.82470393,9.86751018,0.05688,-1.24344,-0.36648,0
0.39547206,-0.78612129,9.94949829,0.05256,-1.23336,-0.3888,0
0.40511772,-0.78129846,9.96396678,0.06624,-1.22616,-0.38952,0
0.36653508,-0.73307016,9.93985263,0.07632,-1.23048,-0.4032,0
0.45816885,-0.76200714,9.91573848,0.04752,-1.21896,-0.3996,0
0.44852319,-0.7716528,9.96878961,0.05832,-1.2132,-0.38808,0
0.43887753,-0.78129846,9.9350298,0.04176,-1.21392,-0.37656,0
0.37618074,-0.78129846,9.85786452,0.04032,-1.22256,-0.3672,0
0.42923187,-0.80058978,9.9350298,0.05112,-1.19664,-0.34992,0
0.39547206,-0.76682997,9.91091565,0.04176,-1.20384,-0.33408,0
0.41958621,-0.83917242,9.95914395,0.04824,-1.19736,-0.32544,0
0.44370036,-0.87293223,10.00254942,0.06048,-1.23192,-0.30744,0
0.42923187,-0.84399525,9.91091565,0.0684,-1.17792,-0.34128,0
0.35688942,-0.79576695,9.8868015,0.0612,-1.19016,-0.33336,0
0.37135791,-0.79576695,9.91091565,0.0576,-1.19088,-0.35784,0
0.37135791,-0.80058978,9.92056131,0.06552,-1.20024,-0.3492,0
0.3375981,-0.78129846,9.96396678,0.0468,-1.19664,-0.36648,0
0.36653508,-0.78612129,9.9350298,0.04896,-1.18008,-0.37512,0
0.31348395,-0.87293223,10.01219508,0.05544,-1.21536,-0.34992,0
0.34242093,-0.80058978,9.95432112,0.05256,-1.1952,-0.3744,0
0.34242093,-0.80541261,9.94949829,0.06696,-1.20096,-0.37008,0
0.3858264,-0.83434959,9.94467546,0.05688,-1.2096,-0.36576,0
0.41476338,-0.82470393,9.94467546,0.06048,-1.20456,-0.40248,0
0.40994055,-0.84399525,9.92538414,0.07488,-1.20888,-0.3888,0
0.39547206,-0.78129846,9.90609282,0.04536,-1.19952,-0.38808,0
0.35688942,-0.78612129,9.91091565,0.05184,-1.21032,-0.37296,0
0.43887753,-0.79576695,9.90609282,0.05472,-1.2096,-0.36288,0
0.39064923,-0.77647563,9.94467546,0.04536,-1.20528,-0.35784,0
0.39547206,-0.79576695,9.94467546,0.0468,-1.18944,-0.52848,0
0.39547206,-0.8198811,9.94467546,0.04968,-1.19952,-0.36432,0
0.37618074,-0.80058978,9.89644716,0.0396,-1.20168,-0.34848,0
0.37618074,-0.84399525,9.97361244,0.04824,-1.21176,-0.35064,0
0.31348395,-0.82470393,9.8868015,0.04536,-1.2132,-0.35208,0
0.34242093,-0.81023544,9.92056131,0.03744,-1.20888,-0.35352,0
0.34724376,-0.76682997,9.95914395,0.04896,-1.1808,-0.33624,0
0.33277527,-0.80058978,9.94949829,0.03024,-1.20816,-0.34344,0
0.40029489,-0.78612129,9.94467546,0.05328,-1.224,-0.35352,0
0.36171225,-0.76682997,9.95432112,0.06408,-1.19448,-0.3384,0
0.32312961,-0.8198811,9.96878961,0.05688,-1.20888,-0.34416,0
0.29419263,-0.8681094,9.92056131,0.04968,-1.2168,-0.33984,0
0.29419263,-0.84881808,9.89162433,0.06264,-1.22328,-0.37152,0
0.33277527,-0.76682997,9.93020697,0.07992,-1.23624,-0.37584,0
0.3858264,-0.78612129,9.95432112,0.06768,-1.21032,-0.37728,0
0.35206659,-0.85846374,10.01701791,0.05472,-1.21104,-0.39456,0
0.35206659,-0.81023544,9.93985263,0.05112,-1.2132,-0.39312,0
0.32795244,-0.78612129,9.96878961,0.0684,-1.20816,-0.38664,0
0.35688942,-0.82470393,9.92056131,0.05832,-1.20168,-0.39456,0
0.31830678,-0.72824733,9.95914395,0.07272,-1.22328,-0.35352,0
0.39064923,-0.81023544,9.99772659,0.0684,-1.2384,-0.36648,0
0.39064923,-0.81023544,9.92538414,0.08496,-1.22256,-0.3564,0
0.40029489,-0.79576695,9.89162433,0.07704,-1.23336,-0.34704,0
0.40994055,-0.79576695,9.91091565,0.05688,-1.23336,-0.33984,0
0.3858264,-0.74271582,9.87715584,0.07416,-1.21176,-0.37224,0
0.40511772,-0.74753865,9.92538414,0.06696,-1.22184,-0.37008,0
0.40029489,-0.75236148,9.87233301,0.02808,-1.23624,-0.37728,0
0.37135791,-0.77647563,9.90126999,0.0468,-1.22328,-0.38304,0
0.37135791,-0.78612129,9.90126999,0.0432,-1.20168,-0.35784,0
0.36171225,-0.80058978,9.93020697,0.06768,-1.20744,-0.35136,0
0.40511772,-0.82952676,9.87233301,0.06696,-1.21896,-0.34128,0
0.40511772,-0.83917242,9.99772659,0.05112,-1.22832,-0.33048,0
0.32312961,-0.82952676,9.91091565,0.05904,-1.23048,-0.32184,0
0.3858264,-0.82952676,9.95432112,0.06048,-1.23264,-0.3528,0
0.36653508,-0.84881808,9.94949829,0.05472,-1.22688,-0.35928,0
0.36653508,-0.84881808,9.93020697,0.06336,-1.2132,-0.37656,0
0.29901546,-0.77647563,9.98808093,0.06696,-1.21536,-0.40968,0
0.31830678,-0.82470393,10.01219508,0.0648,-1.20672,-0.40824,0
0.41958621,-0.85846374,9.97843527,0.05328,-1.22256,-0.42264,0
0.44370036,-0.80541261,9.92538414,0.0684,-1.23264,-0.3996,0
0.482283,-0.7716528,9.92538414,0.04536,-1.22976,-0.37008,0
0.4340547,-0.76200714,9.99290376,0.07488,-1.224,-0.38736,0
0.44370036,-0.77647563,9.90609282,0.05544,-1.21752,-0.33912,0
0.42440904,-0.8198811,9.94949829,0.05544,-1.1916,-0.35712,0
0.43887753,-0.78612129,9.94949829,0.06696,-1.206,-0.33984,0
0.42923187,-0.78612129,9.94949829,0.05256,-1.20888,-0.39096,0
0.44852319,-0.75718431,9.94467546,0.06408,-1.21248,-0.39672,0
0.3858264,-0.74753865,9.94467546,0.0504,-1.20384,-0.38808,0
0.36171225,-0.76200714,9.93020697,0.0396,-1.19736,-0.37584,0
0.40511772,-0.7716528,9.93020697,0.05328,-1.20384,-0.35496,0
0.35206659,-0.76200714,9.9350298,0.054,-1.22472,-0.34704,0
0.32312961,-0.8198811,9.85786452,0.05256,-1.20096,-0.3312,0
0.31830678,-0.8198811,9.8868015,0.0468,-1.21536,-0.3132,0
0.33277527,-0.8198811,9.93985263,0.05616,-1.21824,-0.31392,0
0.3375981,-0.81505827,9.95432112,0.05904,-1.2204,-0.32904,0
0.37618074,-0.8198811,10.01219508,0.06336,-1.22976,-0.35352,0
0.35688942,-0.85364091,9.90609282,0.03456,-1.20024,-0.35568,0
0.40029489,-0.87293223,9.95914395,0.05544,-1.20888,-0.36,0
0.40029489,-0.88257789,9.95432112,0.05544,-1.21608,-0.35064,0
0.41958621,-0.7716528,9.96878961,0.06264,-1.19808,-0.37584,0
0.35688942,-0.81023544,9.92056131,0.05976,-1.21536,-0.3636,0
0.35206659,-0.89222355,9.98808093,0.0396,-1.19952,-0.35928,0
0.3858264,-0.80541261,9.94949829,0.054,-1.18296,-0.35856,0
0.36171225,-0.82952676,9.91573848,0.07056,-1.20744,-0.36936,0
0.33277527,-0.8198811,9.92538414,0.06984,-1.20168,-0.3636,0
0.37618074,-0.82470393,9.92056131,0.05472,-1.1952,-0.20376,0
0.40029489,-0.78612129,9.93020697,0.06264,-1.21824,-0.40104,0
0.37135791,-0.82952676,10.00737225,0.05256,-1.19952,-0.40608,0
0.40994055,-0.80058978,9.9350298,0.06048,-1.18368,-0.41112,0
0.39064923,-0.80541261,9.89644716,0.04248,-1.21032,-0.39312,0
0.33277527,-0.79094412,9.94467546,0.04824,-1.17864,-0.39168,0
0.36653508,-0.80058978,9.96396678,0.06336,-1.20816,-0.37728,0
0.32312961,-0.79576695,9.94949829,0.04968,-1.22328,-0.34848,0
0.3375981,-0.78612129,9.89644716,0.0792,-1.23696,-0.34272,0
0.27490131,-0.76200714,9.99290376,0.07272,-1.21896,-0.34632,0
0.3375981,-0.76200714,9.95914395,0.05688,-1.22112,-0.33048,0
0.35206659,-0.78612129,9.92538414,0.04896,-1.21392,-0.3456,0
0.35688942,-0.84881808,9.9832581,0.04392,-1.20816,-0.3636,0
0.34724376,-0.78612129,9.94949829,0.04392,-1.21968,-0.37512,0
0.40511772,-0.81505827,9.93985263,0.0612,-1.21968,-0.3708,0
0.35206659,-0.85846374,9.96396678,0.05904,-1.21608,-0.38376,0
0.32795244,-0.8198811,9.99290376,0.06192,-1.22544,-0.35496,0
0.3858264,-0.84881808,9.93985263,0.08208,-1.2132,-0.3672,0
0.3858264,-0.80058978,9.89644716,0.08136,-1.22328,-0.35568,0
0.35688942,-0.84399525,9.99772659,0.07488,-1.24128,-0.37872,0
0.3375981,-0.82470393,9.92056131,0.06912,-1.2168,-0.37008,0
0.41476338,-0.80541261,9.91091565,0.07776,-1.21824,-0.40536,0
0.3858264,-0.82470393,9.93020697,0.07344,-1.21104,-0.41112,0
0.36171225,-0.82952676,9.94949829,0.05688,-1.2276,-0.42264,0
0.34724376,-0.82470393,9.94467546,0.06192,-1.21176,-0.40752,0
0.40994055,-0.77647563,9.92538414,0.05112,-1.21392,-0.41112,0
0.3858264,-0.77647563,9.93985263,0.05472,-1.18512,-0.4032,0
0.32312961,-0.78612129,9.92538414,0.05328,-1.2024,-0.37152,0
0.36171225,-0.78129846,9.96878961,0.06696,-1.21536,-0.36144,0
0.3858264,-0.77647563,9.93985263,0.054,-1.21464,-0.35496,0
0.3858264,-0.7716528,9.89644716,0.06552,-1.21464,-0.35496,0
0.35206659,-0.78129846,9.92056131,0.06336,-1.22976,-0.37728,0
0.34724376,-0.79094412,9.98808093,0.05544,-1.22472,-0.3492,0
0.37135791,-0.84399525,9.92538414,0.0504,-1.21032,-0.37368,0
0.42440904,-0.79576695,9.92056131,0.05688,-1.21896,-0.36288,0
0.39064923,-0.78129846,9.92056131,0.04608,-1.22832,-0.38304,0
0.39064923,-0.81505827,9.96396678,0.04896,-1.21248,-0.38016,0
0.40511772,-0.84881808,9.99290376,0.04536,-1.20744,-0.3852,0
0.40511772,-0.83434959,9.94949829,0.04968,-1.20816,-0.3924,0
0.42923187,-0.8198811,9.9350298,0.04392,-1.20096,-0.55008,0
0.41958621,-0.80541261,9.8868015,0.06264,-1.19664,-0.37224,0
0.39547206,-0.79094412,9.92538414,0.06552,-1.2168,-0.3564,0
0.36653508,-0.78129846,9.91091565,0.06048,-1.188,-0.35856,0
0.34242093,-0.73789299,9.92538414,0.05976,-1.18728,-0.37728,0
0.38100357,-0.82952676,9.97843527,0.06336,-1.19304,-0.35352,0
0.37135791,-0.78129846,9.93020697,0.0468,-1.1988,-0.36,0
0.31830678,-0.74753865,9.96396678,0.05184,-1.18368,-0.33696,0
0.36171225,-0.78612129,9.94467546,0.09,-1.21464,-0.3564,0
0.36653508,-0.76682997,9.93985263,0.06192,-1.20384,-0.35784,0
0.31348395,-0.74753865,9.91091565,0.04608,-1.20744,-0.36936,0
0.35688942,-0.76200714,9.95432112,0.0504,-1.21752,-0.37296,0
0.38100357,-0.7716528,9.92538414,0.03744,-1.22112,-0.36288,0
0.35688942,-0.83917242,9.87715584,0.04608,-1.18944,-0.3312,0
0.33277527,-0.83917242,9.96878961,0.04536,-1.224,-0.35208,0
0.39064923,-0.79576695,9.96878961,0.0684,-1.21176,-0.36504,0
0.40994055,-0.84881808,9.92056131,0.05544,-1.23768,-0.3276,0
0.39547206,-0.79094412,9.92538414,0.05112,-1.22184,-0.522,0
0.38100357,-0.77647563,9.95432112,0.05976,-1.21464,-0.35136,0
0.38100357,-0.82952676,9.98808093,0.07632,-1.20528,-0.36504,0
0.36171225,-0.89704638,10.00254942,0.0432,-1.19232,-0.36864,0
0.35206659,-0.83917242,9.94949829,0.04896,-1.21392,-0.37368,0
0.34724376,-0.81505827,9.90126999,0.04032,-1.20312,-0.37152,0
0.37618074,-0.79576695,9.94467546,0.0576,-1.20384,-0.36576,0
0.37135791,-0.81505827,9.90609282,0.04608,-1.21824,-0.53064,0
0.34724376,-0.79576695,9.89644716,0.08064,-1.2096,-0.35712,0
0.40029489,-0.76682997,9.9350298,0.06696,-1.20816,-0.3852,0
0.34724376,-0.80541261,9.92056131,0.07344,-1.224,-0.36504,0
0.35688942,-0.73789299,9.93020697,0.072,-1.22112,-0.36144,0
0.31348395,-0.81023544,9.93985263,0.05832,-1.2204,-0.37368,0
0.35688942,-0.79576695,9.95914395,0.0576,-1.21824,-0.36864,0
0.41476338,-0.75718431,9.93985263,0.05256,-1.22112,-0.378,0
0.41476338,-0.79094412,9.91091565,0.06552,-1.224,-0.3888,0
0.35688942,-0.7716528,9.90609282,0.0576,-1.2132,-0.37368,0
0.35206659,-0.76682997,9.96878961,0.05976,-1.20888,-0.36288,0
0.34724376,-0.79094412,10.00254942,0.07056,-1.22544,-0.342,0
0.35688942,-0.83917242,9.9350298,0.05256,-1.21752,-0.33408,0
0.35688942,-0.8198811,9.98808093,0.05904,-1.20672,-0.342,0
0.41476338,-0.79576695,9.96878961,0.07992,-1.22328,-0.34992,0
0.34724376,-0.81023544,9.89644716,0.0576,-1.22256,-0.3492,0
0.37135791,-0.81505827,9.91573848,0.05832,-1.2168,-0.36864,0
0.39064923,-0.84881808,9.94949829,0.05616,-1.21896,-0.54864,0
0.36171225,-0.85364091,9.89162433,0.05112,-1.20528,-0.37584,0
0.38100357,-0.86328657,9.96878961,0.05688,-1.22832,-0.38664,0
0.3858264,-0.80058978,9.91091565,0.05472,-1.21392,-0.37008,0
0.42923187,-0.78129846,9.91573848,0.05472,-1.21608,-0.3924,0
0.42440904,-0.80058978,9.93020697,0.07848,-1.21176,-0.35784,0
0.39064923,-0.81023544,9.86751018,0.0684,-1.21104,-0.36216,0
0.40029489,-0.76682997,9.94949829,0.06048,-1.19592,-0.34488,0
0.34724376,-0.81023544,9.90609282,0.03312,-1.20888,-0.35856,0
0.41476338,-0.79576695,9.9350298,0.05184,-1.2132,-0.35208,0
0.42440904,-0.85846374,9.94467546,0.04752,-1.20888,-0.36432,0
0.40029489,-0.78129846,9.96396678,0.06912,-1.2168,-0.37872,0
0.38100357,-0.84399525,9.9350298,0.0612,-1.21608,-0.3816,0
0.39064923,-0.82470393,9.94467546,0.05544,-1.22976,-0.38664,0
0.37618074,-0.7716528,9.90609282,0.0612,-1.21248,-0.40824,0
0.42440904,-0.8198811,9.96396678,0.06696,-1.20744,-0.39096,0
0.40994055,-0.78612129,9.94467546,0.05616,-1.19952,-0.38016,0
0.40994055,-0.80541261,9.9350298,0.0504,-1.19448,-0.38592,0
0.4340547,-0.80058978,9.91573848,0.06552,-1.21392,-0.34848,0
0.38100357,-0.7716528,9.95432112,0.05616,-1.20024,-0.37296,0
0.4340547,-0.78612129,9.93985263,0.05904,-1.21176,-0.55224,0
0.40511772,-0.77647563,9.94467546,0.07848,-1.2024,-0.35064,0
0.41958621,-0.76682997,9.9350298,0.06336,-1.19592,-0.34704,0
0.41958621,-0.74271582,9.89162433,0.0612,-1.1952,-0.3636,0
0.32312961,-0.80541261,9.89162433,0.04536,-1.206,-0.36216,0
0.40994055,-0.77647563,9.9350298,0.06264,-1.2132,-0.37944,0
0.35688942,-0.76200714,9.93020697,0.05688,-1.21608,-0.35208,0
0.35688942,-0.77647563,9.96878961,0.05904,-1.2168,-0.35064,0
0.38100357,-0.80058978,9.91573848,0.05256,-1.2312,-0.3492,0
0.39547206,-0.79576695,9.92538414,0.02808,-1.2132,-0.34128,0
0.36171225,-0.78129846,9.94467546,0.04536,-1.24488,-0.34848,0
0.40511772,-0.79094412,9.94467546,0.05328,-1.20672,-0.33336,0
0.3858264,-0.80058978,9.9350298,0.06192,-1.206,-0.34632,0
0.36653508,-0.8198811,9.92538414,0.0504,-1.21464,-0.36144,0
0.3375981,-0.76682997,9.90609282,0.06264,-1.21392,-0.37512,0
0.37618074,-0.81505827,9.95432112,0.06336,-1.21608,-0.3636,0
0.39547206,-0.80058978,9.93985263,0.05832,-1.21392,-0.39024,0
0.3375981,-0.80541261,9.89644716,0.06624,-1.1916,-0.40464,0
0.33277527,-0.79094412,9.90609282,0.07776,-1.21464,-0.39312,0
0.36171225,-0.81023544,9.9350298,0.0432,-1.20672,-0.37944,0
0.31830678,-0.81505827,9.87715584,0.06552,-1.20384,-0.36,0
0.33277527,-0.7716528,9.94949829,0.04896,-1.21824,-0.378,0
0.34242093,-0.82470393,9.89162433,0.0576,-1.23264,-0.36288,0
0.33277527,-0.78129846,9.93020697,0.05904,-1.23336,-0.36648,0
0.3375981,-0.80058978,9.87233301,0.04752,-1.22112,-0.36864,0
0.41476338,-0.76682997,9.92056131,0.05328,-1.224,-0.3528,0
0.38100357,-0.76200714,9.95432112,0.05328,-1.23624,-0.36072,0
0.37618074,-0.83434959,9.95914395,0.05184,-1.21824,-0.3492,0
0.39064923,-0.80058978,9.94467546,0.04464,-1.23264,-0.36432,0
0.3858264,-0.8198811,9.9350298,0.04824,-1.2132,-0.35712,0
0.40511772,-0.8681094,9.98808093,0.06408,-1.21536,-0.3492,0
0.35206659,-0.81023544,9.90126999,0.07272,-1.21608,-0.342,0
0.39547206,-0.86328657,9.96878961,0.07056,-1.21176,-0.34776,0
0.41476338,-0.82952676,9.93985263,0.04464,-1.21248,-0.33984,0
0.42923187,-0.86328657,9.94467546,0.05184,-1.22472,-0.36432,0
0.33277527,-0.81023544,9.90609282,0.05832,-1.21968,-0.38376,0
0.37618074,-0.90186921,9.91091565,0.04896,-1.22904,-0.37224,0
0.34724376,-0.86328657,9.9832581,0.03456,-1.1952,-0.40248,0
0.39064923,-0.84881808,9.92056131,0.05544,-1.224,-0.40536,0
0.34724376,-0.83434959,9.94467546,0.0648,-1.19664,-0.39312,0
0.39547206,-0.78129846,9.91573848,0.0216,-1.19016,-0.40608,0
0.36653508,-0.84881808,9.96396678,0.06408,-1.21896,-0.38016,0
0.40029489,-0.84399525,9.9350298,0.05112,-1.2204,-0.39528,0
0.40029489,-0.81023544,9.90126999,0.04464,-1.21968,-0.37656,0
0.41476338,-0.80058978,9.86751018,0.06192,-1.21392,-0.38592,0
0.41958621,-0.78129846,9.92538414,0.04248,-1.20672,-0.38808,0
0.36653508,-0.77647563,9.94949829,0.06624,-1.19304,-0.378,0
0.43887753,-0.81023544,9.92056131,0.0612,-1.21752,-0.38304,0
0.31830678,-0.76682997,9.93020697,0.06048,-1.20168,-0.38808,0
0.38100357,-0.78612129,9.96878961,0.05832,-1.20816,-0.37224,0
0.42440904,-0.8198811,9.90609282,0.06336,-1.20744,-0.36216,0
0.40994055,-0.8198811,9.91091565,0.05616,-1.20672,-0.35352,0
0.39064923,-0.79576695,9.93020697,0.07704,-1.21824,-0.35424,0
0.39064923,-0.81505827,9.90126999,0.07128,-1.2096,-0.3564,0
0.40511772,-0.85846374,9.96878961,0.07128,-1.2312,-0.37944,0
0.39547206,-0.78612129,9.89162433,0.07992,-1.2204,-0.3636,0
0.41476338,-0.83434959,9.90609282,0.07848,-1.22976,-0.37008,0
0.35206659,-0.80058978,9.95914395,0.0684,-1.17864,-0.35136,0
0.33277527,-0.8681094,9.98808093,0.05976,-1.20888,-0.35568,0
0.39547206,-0.82952676,9.85786452,0.04968,-1.20816,-0.35208,0
0.38100357,-0.87293223,9.97843527,0.06048,-1.20024,-0.34344,0
0.39064923,-0.8198811,9.90609282,0.0504,-1.20456,-0.36,0
0.36171225,-0.78612129,9.95432112,0.07344,-1.20816,-0.37224,0
0.37135791,-0.75236148,9.91091565,0.05616,-1.21104,-0.38016,0
0.41476338,-0.76200714,9.94949829,0.06336,-1.20888,-0.38376,0
0.29901546,-0.74271582,9.93985263,0.04824,-1.19232,-0.39168,0
0.34242093,-0.74753865,9.90126999,0.04176,-1.21536,-0.41976,0
0.34242093,-0.79576695,9.89162433,0.05328,-1.19592,-0.414,0
0.3375981,-0.77647563,9.94467546,0.08856,-1.2276,-0.38304,0
0.36653508,-0.73307016,9.88197867,0.07776,-1.22256,-0.3456,0
0.39547206,-0.77647563,9.91091565,0.0432,-1.224,-0.35568,0
0.39547206,-0.75236148,9.94949829,0.08424,-1.206,-0.33192,0
0.40994055,-0.76682997,9.93985263,0.05832,-1.20744,-0.33048,0
0.40511772,-0.80058978,9.9350298,0.08136,-1.2276,-0.34776,0
0.41958621,-0.75236148,9.93020697,0.05904,-1.22616,-0.35784,0
0.42923187,-0.78612129,9.86751018,0.04968,-1.21608,-0.37584,0
0.36171225,-0.78129846,8.69556249,0.03312,-1.19952,-0.38016,0
0.33277527,-0.79094412,9.91091565,0.04392,-1.1916,-0.38664,0
0.35688942,-0.79094412,9.93020697,0.0468,-1.19016,-0.37512,0
0.33277527,-0.82952676,9.87715584,0.03024,-1.20744,-0.37008,0
0.35206659,-0.78129846,9.91091565,0.02448,-1.21032,-0.36072,0
0.30383829,-0.82470393,9.89644716,0.03456,-1.22328,-0.33768,0
0.40029489,-0.86328657,9.93985263,0.05184,-1.21896,-0.33912,0
0.35688942,-0.80541261,9.91091565,0.04392,-1.21896,-0.33264,0
0.35688942,-0.81023544,9.89162433,0.05256,-1.25568,-0.33696,0
0.36653508,-0.7716528,9.91573848,0.03672,-1.23192,-0.3492,0
0.37618074,-0.82952676,9.92538414,0.05256,-1.21032,-0.37152,0
0.36171225,-0.7716528,9.88197867,0.06192,-1.206,-0.36576,0
0.3858264,-0.76682997,9.94949829,0.07344,-1.21248,-0.38592,0
0.42440904,-0.78612129,9.9350298,0.0648,-1.22328,-0.38376,0
0.37618074,-0.81023544,9.91091565,0.03384,-1.206,-0.37944,0
0.39547206,-0.79576695,9.90126999,0.054,-1.20024,-0.38016,0
0.45334602,-0.79094412,9.90126999,0.06048,-1.2096,-0.36648,0
0.40994055,-0.76200714,9.9350298,0.05832,-1.22688,-0.37728,0
0.36171225,-0.85364091,9.98808093,0.05544,-1.22328,-0.34704,0
0.39064923,-0.80541261,9.93020697,0.0864,-1.23048,-0.3312,0
0.42440904,-0.81023544,9.89162433,0.06768,-1.21176,-0.324,0
0.39547206,-0.81023544,9.89162433,0.04464,-1.22616,-0.35496,0
0.36653508,-0.78612129,9.9832581,0.05184,-1.22904,-0.34416,0
0.37618074,-0.87775506,9.9350298,0.04536,-1.21032,-0.36072,0
0.37618074,-0.82470393,9.90126999,0.05688,-1.2024,-0.3636,0
0.36171225,-0.78129846,9.90126999,0.06192,-1.19448,-0.37584,0
0.30866112,-0.83434959,9.89162433,0.05832,-1.18728,-0.36864,0
0.33277527,-0.82952676,9.94949829,0.03744,-1.22112,-0.3672,0
0.34724376,-0.80058978,9.94949829,0.05472,-1.21032,-0.39384,0
0.33277527,-0.81505827,9.94949829,0.06192,-1.20312,-0.38664,0
0.35688942,-0.80541261,9.89162433,0.0612,-1.21104,-0.39888,0
0.3858264,-0.79576695,9.90126999,0.07056,-1.20456,-0.37584,0
0.3375981,-0.88740072,9.99290376,0.06984,-1.2096,-0.36576,0
0.37135791,-0.85364091,9.94949829,0.06912,-1.20312,-0.36864,0
0.41476338,-0.80058978,9.92056131,0.06984,-1.206,-0.36864,0
0.39547206,-0.83434959,9.98808093,0.0612,-1.21248,-0.38952,0
0.40994055,-0.79094412,9.92056131,0.03528,-1.19664,-0.38592,0
0.40029489,-0.80541261,9.92056131,0.054,-1.19232,-0.38952,0
0.44370036,-0.81023544,9.91091565,0.07632,-1.19592,-0.40392,0
0.39064923,-0.80541261,9.93020697,0.06336,-1.19592,-0.3924,0
0.40994055,-0.79576695,9.9350298,0.07344,-1.20672,-0.39456,0
0.35206659,-0.74753865,9.96878961,0.054,-1.20744,-0.38088,0
0.31830678,-0.80058978,9.85786452,0.05256,-1.19736,-0.35856,0
0.34724376,-0.76682997,9.90126999,0.07776,-1.20888,-0.34488,0
0.36171225,-0.77647563,9.9350298,0.072,-1.19016,-0.33984,0
0.34242093,-0.8198811,9.87233301,0.07272,-1.21968,-0.33912,0
0.36171225,-0.77647563,9.93020697,0.05904,-1.2204,-0.34776,0
0.26525565,-0.79576695,9.9832581,0.05328,-1.2096,-0.3492,0
0.34724376,-0.82470393,9.9350298,0.06912,-1.22256,-0.3636,0
0.34724376,-0.80058978,9.93985263,0.0648,-1.2384,-0.37296,0
0.3375981,-0.83917242,9.8868015,0.05904,-1.23264,-0.3636,0
0.36171225,-0.75718431,9.89644716,0.06768,-1.20744,-0.39168,0
0.34724376,-0.80058978,9.86751018,0.054,-1.20456,-0.39888,0
0.37618074,-0.75718431,9.87715584,0.05832,-1.20024,-0.3852,0
0.40511772,-0.80058978,9.91573848,0.06336,-1.22976,-0.3852,0
0.45334602,-0.79576695,9.90126999,0.07632,-1.21104,-0.3744,0
0.44370036,-0.82952676,9.91091565,0.06768,-1.22904,-0.37584,0
0.40994055,-0.80541261,9.90126999,0.0648,-1.2096,-0.37296,0
0.39547206,-0.76200714,9.8868015,0.05256,-1.23192,-0.39672,0
0.42923187,-0.76200714,9.91573848,0.04392,-1.21392,-0.40248,0
0.3858264,-0.73307016,9.92538414,0.05616,-1.21248,-0.39024,0
0.34242093,-0.79094412,9.89644716,0.05976,-1.20816,-0.39744,0
0.34724376,-0.77647563,9.93985263,0.04464,-1.188,-0.38592,0
0.36653508,-0.73307016,9.92056131,0.05832,-1.18656,-0.38088,0
0.2893698,-0.74753865,9.95432112,0.0576,-1.22472,-0.38016,0
0.37618074,-0.80058978,9.95432112,0.05256,-1.2132,-0.34272,0
0.33277527,-0.80541261,9.92538414,0.04608,-1.21248,-0.34128,0
0.3858264,-0.79094412,9.89644716,0.03744,-1.22832,-0.34848,0
0.38100357,-0.76682997,9.90609282,0.054,-1.22904,-0.34776,0
0.37135791,-0.80541261,9.91573848,0.05256,-1.2168,-0.36864,0
0.35688942,-0.81505827,9.84821886,0.04752,-1.20096,-0.3708,0
0.37618074,-0.82952676,9.91091565,0.04608,-1.20024,-0.37512,0
0.31830678,-0.81023544,9.90126999,0.06552,-1.2276,-0.36864,0
0.35206659,-0.80058978,9.88197867,0.03816,-1.22904,-0.37944,0
0.34724376,-0.81505827,9.88197867,0.07704,-1.21968,-0.34488,0
0.3375981,-0.81505827,9.88197867,0.0648,-1.23192,-0.35856,0
0.40511772,-0.83434959,9.9350298,0.05544,-1.2276,-0.35208,0
0.3858264,-0.79576695,9.93985263,0.06192,-1.20672,-0.3492,0
0.33277527,-0.80058978,9.8868015,0.05256,-1.206,-0.52848,0
0.37135791,-0.76682997,9.9350298,0.06552,-1.21536,-0.3744,0
0.41476338,-0.81023544,9.88197867,0.05256,-1.19016,-0.36792,0
0.36653508,-0.80058978,9.93020697,0.04248,-1.20528,-0.35424,0
0.36171225,-0.8198811,9.93020697,0.04176,-1.21248,-0.37656,0
0.36653508,-0.78129846,9.91091565,0.04824,-1.20384,-0.3672,0
0.35206659,-0.80058978,9.92538414,0.04104,-1.21464,-0.36288,0
0.38100357,-0.84881808,9.95914395,0.06048,-1.23048,-0.36432,0
0.34242093,-0.85364091,9.94467546,0.04176,-1.20744,-0.34776,0
0.32312961,-0.89704638,10.01219508,0.03096,-1.21248,-0.33984,0
0.41476338,-0.82952676,9.93020697,0.072,-1.22544,-0.3348,0
0.4340547,-0.87293223,9.93985263,0.05472,-1.21968,-0.34488,0
0.39064923,-0.85846374,9.93020697,0.0612,-1.21392,-0.37368,0
0.39064923,-0.8681094,9.9832581,0.06552,-1.24272,-0.3672,0
0.36171225,-0.8198811,9.9350298,0.04968,-1.22688,-0.38736,0
0.35206659,-0.81023544,9.90126999,0.06696,-1.20528,-0.40104,0
0.40029489,-0.80058978,9.93985263,0.04968,-1.21104,-0.36,0
0.43887753,-0.80058978,9.91091565,0.09288,-1.21752,-0.37872,0
0.36171225,-0.88257789,9.97361244,0.072,-1.21392,-0.55152,0
0.38100357,-0.84881808,9.97361244,0.05616,-1.1988,-0.37152,0
0.34724376,-0.81505827,9.90126999,0.08136,-1.18296,-0.396,0
0.41476338,-0.83434959,9.91573848,0.06768,-1.19376,-0.38376,0
0.35688942,-0.81505827,9.93985263,0.07344,-1.18656,-0.39312,0
0.34724376,-0.7716528,9.89644716,0.072,-1.21824,-0.39672,0
0.40511772,-0.7716528,9.93020697,0.07776,-1.1916,-0.38664,0
0.36653508,-0.85364091,9.93020697,0.07488,-1.20816,-0.39888,0
0.36171225,-0.82470393,9.8868015,0.05976,-1.21464,-0.35856,0
0.34242093,-0.81505827,9.91573848,0.07344,-1.20672,-0.37872,0
0.40511772,-0.76682997,9.91573848,0.04968,-1.20312,-0.36504,0
0.35206659,-0.81023544,9.94467546,0.04608,-1.19808,-0.36792,0
0.37135791,-0.8198811,9.9832581,0.05616,-1.18944,-0.36576,0
0.36653508,-0.84399525,9.93985263,0.036,-1.19664,-0.38952,0
0.36653508,-0.80058978,9.94949829,0.05256,-1.20096,-0.38808,0
0.34242093,-0.78612129,9.92056131,0.05832,-1.2168,-0.378,0
0.31830678,-0.82952676,9.91573848,0.05184,-1.21824,-0.3852,0
0.30866112,-0.82470393,9.87715584,0.04752,-1.19376,-0.35352,0
0.32795244,-0.80541261,9.93985263,0.0828,-1.22472,-0.34416,0
0.31348395,-0.76200714,9.97843527,0.0756,-1.21824,-0.35352,0
0.34242093,-0.81505827,9.86751018,0.054,-1.22616,-0.35928,0
0.37618074,-0.8198811,9.91091565,0.07704,-1.21824,-0.35784,0
0.4340547,-0.75236148,9.92538414,0.04536,-1.20888,-0.36792,0
0.44370036,-0.75718431,9.93020697,0.06408,-1.21104,-0.37944,0
0.39064923,-0.75236148,9.9350298,0.05256,-1.22904,-0.39528,0
0.37618074,-0.76682997,9.89162433,0.05688,-1.21536,-0.3852,0
0.39547206,-0.74753865,9.95432112,0.06696,-1.19016,-0.39024,0
0.40994055,-0.80058978,9.85304169,0.06336,-1.21896,-0.37296,0
0.42923187,-0.79576695,9.95432112,0.05112,-1.18728,-0.34632,0
0.30866112,-0.84399525,9.93020697,0.05976,-1.20096,-0.32544,0
0.35206659,-0.76682997,9.87233301,0.04536,-1.22904,-0.32184,0
0.31830678,-0.81023544,9.87233301,0.05616,-1.23984,-0.33552,0
0.35688942,-0.82470393,9.85786452,0.05616,-1.21896,-0.35784,0
0.3375981,-0.81505827,9.86751018,0.05112,-1.20168,-0.34704,0
0.27972414,-0.79094412,9.94949829,0.05328,-1.22544,-0.37224,0
0.35688942,-0.79576695,9.92056131,0.06912,-1.21968,-0.37872,0
0.38100357,-0.76682997,9.93985263,0.036,-1.20528,-0.396,0
0.32795244,-0.84399525,9.9350298,0.06696,-1.20888,-0.39744,0
0.3375981,-0.80058978,9.93985263,0.04896,-1.242,-0.3816,0
0.35206659,-0.79094412,9.86751018,0.05832,-1.22544,-0.38232,0
0.40511772,-0.80541261,9.92538414,0.06192,-1.22616,-0.3924,0
0.36653508,-0.76200714,11.092509,0.05184,-1.19952,-0.34992,0
0.40029489,-0.78612129,9.94949829,0.05832,-1.2312,-0.36144,0
