Timestamp,Yaw,Pitch,Roll,Qtn[0], Qtn[1], Qtn[2], Qtn[3],Rate X,Rate Y,Rate Z,Accel X,Accel Y,Accel Z,Temp,Pres,dTime,dTheta X,dTheta Y,dTheta Z,dVel X,dVel Y,dVel Z,AccelNed X,AccelNed Y,AccelNed Z,LinearAccel X,LinearAccel Y,LinearAccel Z,LinearAccelNed X,LinearAccelNed Y,LinearAccelNed Z
2258.56,-140.27,88.4097,-26.8871,-0.58114,-0.387169,0.600643,-0.389364,-0.00305152,-0.00126267,-0.000600358,9.80336,0.0957466,-0.239103,33.71,99.361,0.024999,-0.00830367,0.00110446,0.00665401,0.244183,0.00280381,-0.00608021,-0.0265417,0.0075022,-9.8067,0.0133851,-0.027174,0.00332175,-0.0265417,0.0075022,-0.0129566
2258.59,-140.27,88.4097,-26.8871,-0.58114,-0.387169,0.600643,-0.389364,-0.00305152,-0.00126267,-0.000600358,9.80336,0.0957466,-0.239103,33.71,99.361,0.024999,-0.00830367,0.00110446,0.00665401,0.244183,0.00280381,-0.00608021,-0.0265417,0.0075022,-9.8067,0.0133851,-0.027174,0.00332175,-0.0265417,0.0075022,-0.0129566
2258.61,-140.272,88.4086,-26.8831,-0.581153,-0.387137,0.600671,-0.389334,0.00218927,0.000187509,-0.000663301,9.78761,0.137837,-0.260695,33.7,99.345,0.025,0.000745891,0.0014426,0.00653526,0.244541,0.00274556,-0.00683857,0.0208452,0.0107416,-9.79202,-0.00236047,0.0148425,-0.0180834,0.0208452,0.0107416,0.0017252
2258.64,-140.272,88.4086,-26.8831,-0.581153,-0.387137,0.600671,-0.389334,0.00218927,0.000187509,-0.000663301,9.78761,0.137837,-0.260695,33.7,99.345,0.025,0.000745891,0.0014426,0.00653526,0.244541,0.00274556,-0.00683857,0.0208452,0.0107416,-9.79202,-0.00236047,0.0148425,-0.0180834,0.0208452,0.0107416,0.0017252
2258.66,-141.222,88.4049,-27.8077,-0.581199,-0.387164,0.600796,-0.389045,0.0543514,0.0515347,-0.0821976,76.8245,-7.26376,-1.19527,33.7075,99.678,0.025,0.0211829,0.00962021,-0.0180783,0.706677,-0.0421278,-0.014117,-7.85719,2.64446,-76.7298,67.0345,-7.39095,-0.954117,-7.85719,2.64446,-66.9361
2258.69,-141.762,88.4756,-28.144,-0.58232,-0.386228,0.601064,-0.387884,0.150732,0.117909,0.0886676,71.5214,2.8998,-1.65617,33.7,99.311,0.025,0.199094,0.07082,0.0266189,1.86492,0.0721232,-0.0796165,1.82488,-0.82282,-71.5714,61.7312,2.77688,-1.42639,1.82488,-0.82282,-61.7776
2258.72,-141.762,88.4756,-28.144,-0.58232,-0.386228,0.601064,-0.387884,0.150732,0.117909,0.0886676,71.5214,2.8998,-1.65617,33.7,99.311,0.025,0.199094,0.07082,0.0266189,1.86492,0.0721232,-0.0796165,1.82488,-0.82282,-71.5714,61.7312,2.77688,-1.42639,1.82488,-0.82282,-61.7776
2258.74,-148.643,88.4948,-35.1346,-0.582038,-0.387931,0.600604,-0.387319,0.0160861,0.0528111,-0.00296467,72.4803,6.2616,0.146407,33.705,99.334,0.025001,-0.187742,0.0214688,-0.080687,1.80417,0.091546,-0.0266524,4.05661,-3.62328,-72.5468,62.6899,6.11354,0.356799,4.05661,-3.62328,-62.7531
2258.77,-148.643,88.4948,-35.1346,-0.582038,-0.387931,0.600604,-0.387319,0.0160861,0.0528111,-0.00296467,72.4803,6.2616,0.146407,33.705,99.334,0.025001,-0.187742,0.0214688,-0.080687,1.80417,0.091546,-0.0266524,4.05661,-3.62328,-72.5468,62.6899,6.11354,0.356799,4.05661,-3.62328,-62.7531
2258.79,-150.225,88.5026,-36.044,-0.584362,-0.384654,0.60281,-0.383644,0.376,-0.0160708,-0.0174649,73.1456,-2.77382,-0.903979,33.7,99.288,0.025001,0.47219,-0.00715537,0.0489371,1.83423,0.046585,0.00895265,-3.81867,1.01198,-73.097,63.3551,-2.92438,-0.697083,-3.81867,1.01198,-63.3033
2258.82,-150.225,88.5026,-36.044,-0.584362,-0.384654,0.60281,-0.383644,0.376,-0.0160708,-0.0174649,73.1456,-2.77382,-0.903979,33.7,99.288,0.025001,0.47219,-0.00715537,0.0489371,1.83423,0.046585,0.00895265,-3.81867,1.01198,-73.097,63.3551,-2.92438,-0.697083,-3.81867,1.01198,-63.3033
2258.84,-148.247,88.4833,-34.3272,-0.583354,-0.385707,0.602065,-0.385287,-0.251393,7.14E-05,-0.036091,73.3995,-3.20004,-1.03287,33.7,99.3,0.025001,-0.313224,-0.018391,0.0035827,1.83217,-0.0712175,-0.0321817,-4.15799,1.21952,-73.3486,63.6092,-3.34621,-0.818809,-4.15799,1.21952,-63.5549
2258.87,-151.947,88.4169,-38.3163,-0.582,-0.387863,0.601459,-0.386115,-0.161644,0.00823325,-0.0883411,73.6808,3.38725,-0.766685,33.71,99.122,0.024999,-0.290857,0.00744928,-0.113545,1.83642,0.0400828,-0.0327838,1.61323,-1.61313,-73.7273,63.8908,3.2195,-0.554398,1.61323,-1.61313,-63.9336
2258.89,-151.947,88.4169,-38.3163,-0.582,-0.387863,0.601459,-0.386115,-0.161644,0.00823325,-0.0883411,73.6808,3.38725,-0.766685,33.71,99.122,0.024999,-0.290857,0.00744928,-0.113545,1.83642,0.0400828,-0.0327838,1.61323,-1.61313,-73.7273,63.8908,3.2195,-0.554398,1.61323,-1.61313,-63.9336
2258.92,-155.488,88.4141,-42.5405,-0.579746,-0.392044,0.599076,-0.388978,-0.351204,0.0303418,0.0199047,73.3174,6.56896,-1.37999,33.7,99.209,0.024999,-0.410806,0.0448635,-0.0306213,1.83793,0.0593723,-0.0366679,4.73896,-2.13311,-73.4403,63.5274,6.38569,-1.18027,4.73896,-2.13311,-63.6466
2258.94,-155.488,88.4141,-42.5405,-0.579746,-0.392044,0.599076,-0.388978,-0.351204,0.0303418,0.0199047,73.3174,6.56896,-1.37999,33.7,99.209,0.024999,-0.410806,0.0448635,-0.0306213,1.83793,0.0593723,-0.0366679,4.73896,-2.13311,-73.4403,63.5274,6.38569,-1.18027,4.73896,-2.13311,-63.6466
2258.97,-156.171,88.4351,-43.95,-0.577416,-0.395928,0.596433,-0.392554,-0.189542,0.0273252,-0.0432714,73.3042,-4.20893,-3.38722,33.7,99.277,0.024999,-0.383467,-0.0131349,0.0215523,1.83341,-0.00957682,-0.0468194,-4.44663,3.9186,-73.2636,63.5141,-4.39458,-3.19465,-4.44663,3.9186,-63.4699
2258.99,-159.344,88.4732,-47.6985,-0.575781,-0.399386,0.594102,-0.39498,-0.217335,0.055701,0.0350682,73.1179,0.74658,-1.99662,33.7,99.277,0.024999,-0.295209,0.0297501,0.00142754,1.83031,0.0210187,-0.0481631,-0.393278,0.892925,-73.1425,63.3277,0.553566,-1.82098,-0.393278,0.892925,-63.3487
2259.02,-159.344,88.4732,-47.6985,-0.575781,-0.399386,0.594102,-0.39498,-0.217335,0.055701,0.0350682,73.1179,0.74658,-1.99662,33.7,99.277,0.024999,-0.295209,0.0297501,0.00142754,1.83031,0.0210187,-0.0481631,-0.393278,0.892925,-73.1425,63.3277,0.553566,-1.82098,-0.393278,0.892925,-63.3487
2259.04,-160.441,88.5255,-49.0889,-0.575128,-0.401002,0.592723,-0.396364,-0.21314,0.0440223,0.0397529,73.1357,1.18785,-1.83044,33.7,99.277,0.025,-0.295604,0.0579994,0.0265875,1.83326,0.0200358,-0.0321325,-0.00119537,0.642058,-73.1654,63.3452,0.997395,-1.6654,-0.00119537,0.642058,-63.3717
2259.07,-160.441,88.5255,-49.0889,-0.575128,-0.401002,0.592723,-0.396364,-0.21314,0.0440223,0.0397529,73.1357,1.18785,-1.83044,33.7,99.277,0.025,-0.295604,0.0579994,0.0265875,1.83326,0.0200358,-0.0321325,-0.00119537,0.642058,-73.1654,63.3452,0.997395,-1.6654,-0.00119537,0.642058,-63.3717
2259.09,-162.313,88.6973,-51.5618,-0.574145,-0.40409,0.589529,-0.399405,-0.220439,0.0665795,0.0519532,73.1104,1.23267,-2.24645,33.7,99.232,0.025001,-0.306449,0.0791661,0.0680523,1.83234,0.0186393,-0.0418461,0.363988,1.15864,-73.1452,63.3192,1.05822,-2.10799,0.363988,1.15864,-63.3514
2259.12,-162.313,88.6973,-51.5618,-0.574145,-0.40409,0.589529,-0.399405,-0.220439,0.0665795,0.0519532,73.1104,1.23267,-2.24645,33.7,99.232,0.025001,-0.306449,0.0791661,0.0680523,1.83234,0.0186393,-0.0418461,0.363988,1.15864,-73.1452,63.3192,1.05822,-2.10799,0.363988,1.15864,-63.3514
2259.14,-165.685,88.951,-55.5728,-0.573538,-0.407279,0.58566,-0.402716,-0.231262,0.0803932,0.069464,73.2616,1.58843,-1.04023,33.7,99.243,0.025001,-0.331134,0.108686,0.0949642,1.83289,0.0185867,-0.0404733,0.548777,0.0987545,-73.284,63.4695,1.44047,-0.938815,0.548777,0.0987545,-63.4903
2259.17,-167.614,89.2415,-58.2219,-0.572746,-0.41046,0.581366,-0.406815,-0.259928,0.0496985,0.096443,73.3938,1.14865,-1.11022,33.7,99.243,0.025001,-0.371434,0.0917946,0.129929,1.83693,0.0196215,-0.0299534,0.503231,0.457463,-73.4081,63.6009,1.03846,-1.04196,0.503231,0.457463,-63.6143
2259.19,-167.614,89.2415,-58.2219,-0.572746,-0.41046,0.581366,-0.406815,-0.259928,0.0496985,0.096443,73.3938,1.14865,-1.11022,33.7,99.243,0.025001,-0.371434,0.0917946,0.129929,1.83693,0.0196215,-0.0299534,0.503231,0.457463,-73.4081,63.6009,1.03846,-1.04196,0.503231,0.457463,-63.6143
2259.22,-170.616,89.4072,-61.6009,-0.572424,-0.41215,0.579001,-0.408927,-0.266954,0.103603,0.0921566,72.7128,1.03192,-1.65548,33.7075,99.209,0.024999,-0.37979,0.114951,0.131329,1.8203,0.0112763,-0.0630479,0.771823,1.10611,-72.7265,62.9196,0.942687,-1.60723,0.771823,1.10611,-62.9327
2259.25,-170.616,89.4072,-61.6009,-0.572424,-0.41215,0.579001,-0.408927,-0.266954,0.103603,0.0921566,72.7128,1.03192,-1.65548,33.7075,99.209,0.024999,-0.37979,0.114951,0.131329,1.8203,0.0112763,-0.0630479,0.771823,1.10611,-72.7265,62.9196,0.942687,-1.60723,0.771823,1.10611,-62.9327
2259.27,154.262,89.761,-97.5071,-0.572195,-0.415771,0.573596,-0.413177,-0.29336,0.118286,0.105003,72.7427,0.690301,-1.67673,33.7025,99.243,0.024999,-0.414703,0.173421,0.15493,1.81805,0.0158786,-0.0478382,0.907024,1.50831,-72.744,62.9491,0.64982,-1.68207,0.907024,1.50831,-62.9503
2259.3,69.6284,89.5766,177.086,-0.572267,-0.419766,0.567898,-0.41689,-0.264911,0.152098,0.0775462,72.4767,0.616388,-2.32998,33.7075,99.163,0.025,-0.392756,0.206167,0.125379,1.8112,0.0125788,-0.0557106,1.47358,2.54027,-72.4573,62.6832,0.62007,-2.40233,1.47358,2.54027,-62.6635
2259.32,69.6284,89.5766,177.086,-0.572267,-0.419766,0.567898,-0.41689,-0.264911,0.152098,0.0775462,72.4767,0.616388,-2.32998,33.7075,99.163,0.025,-0.392756,0.206167,0.125379,1.8112,0.0125788,-0.0557106,1.47358,2.54027,-72.4573,62.6832,0.62007,-2.40233,1.47358,2.54027,-62.6635
2259.35,61.8583,89.3436,168.948,-0.572393,-0.421889,0.565073,-0.418413,-0.266932,0.153135,0.0579261,72.3459,0.141833,-2.17523,33.7,99.175,0.025,-0.382106,0.223361,0.107298,1.80881,0.00545603,-0.0514363,1.16579,2.76847,-72.3163,62.5528,0.163348,-2.28539,1.16579,2.76847,-62.5226
2259.37,61.8583,89.3436,168.948,-0.572393,-0.421889,0.565073,-0.418413,-0.266932,0.153135,0.0579261,72.3459,0.141833,-2.17523,33.7,99.175,0.025,-0.382106,0.223361,0.107298,1.80881,0.00545603,-0.0514363,1.16579,2.76847,-72.3163,62.5528,0.163348,-2.28539,1.16579,2.76847,-62.5226
2259.4,60.932,88.8667,167.209,-0.572106,-0.427011,0.559337,-0.421306,-0.296741,0.169673,0.0249984,71.9324,0.359986,-1.76601,33.7,99.118,0.025,-0.425449,0.2309,0.0509529,1.80244,0.00711664,-0.051184,1.53157,2.83749,-71.8827,62.1406,0.402869,-1.9549,1.53157,2.83749,-62.0889
2259.42,60.932,88.8667,167.209,-0.572106,-0.427011,0.559337,-0.421306,-0.296741,0.169673,0.0249984,71.9324,0.359986,-1.76601,33.7,99.118,0.025,-0.425449,0.2309,0.0509529,1.80244,0.00711664,-0.051184,1.53157,2.83749,-71.8827,62.1406,0.402869,-1.9549,1.53157,2.83749,-62.0889
2259.45,63.9017,88.4176,169.366,-0.571401,-0.43252,0.553941,-0.423765,-0.288355,0.153343,-0.00977352,71.7037,-0.443345,-2.07073,33.71,99.134,0.025001,-0.417039,0.22843,0.00676119,1.79445,-0.00201727,-0.0481818,0.995716,3.8918,-71.6224,61.9137,-0.393428,-2.33658,0.995716,3.8918,-61.8286
2259.47,68.8109,87.9368,173.411,-0.570287,-0.438924,0.548488,-0.425769,-0.332262,0.184285,-0.0390363,71.1995,0.0182546,-1.92089,33.71,99.043,0.025001,-0.456784,0.25824,-0.0452276,1.77929,0.00107369,-0.0626035,1.4279,4.24312,-71.0845,61.4121,0.0587155,-2.27115,1.4279,4.24312,-61.2908
2259.5,68.8109,87.9368,173.411,-0.570287,-0.438924,0.548488,-0.425769,-0.332262,0.184285,-0.0390363,71.1995,0.0182546,-1.92089,33.71,99.043,0.025001,-0.456784,0.25824,-0.0452276,1.77929,0.00107369,-0.0626035,1.4279,4.24312,-71.0845,61.4121,0.0587155,-2.27115,1.4279,4.24312,-61.2908
2259.52,70.7878,87.6759,174.903,-0.56958,-0.442465,0.545483,-0.426909,-0.343979,0.183756,-0.0362269,70.9389,0.160933,-1.90913,33.7025,99.009,0.024999,-0.493734,0.269015,-0.0424832,1.77618,0.00662432,-0.0573203,1.56781,4.52733,-70.8028,61.1532,0.196213,-2.30473,1.56781,4.52733,-61.0091
2259.55,70.7878,87.6759,174.903,-0.56958,-0.442465,0.545483,-0.426909,-0.343979,0.183756,-0.0362269,70.9389,0.160933,-1.90913,33.7025,99.009,0.024999,-0.493734,0.269015,-0.0424832,1.77618,0.00662432,-0.0573203,1.56781,4.52733,-70.8028,61.1532,0.196213,-2.30473,1.56781,4.52733,-61.0091
2259.57,74.0848,87.2047,177.151,-0.567498,-0.449778,0.539456,-0.429689,-0.393711,0.147175,-0.0517684,70.5429,-0.0101333,-2.01291,33.7,99.05,0.025,-0.549698,0.226397,-0.0599456,1.76601,0.000567907,-0.0500176,1.38794,5.26929,-70.361,60.7608,0.0136071,-2.48996,1.38794,5.26929,-60.5672
2259.6,77.727,86.8731,179.64,-0.564045,-0.457305,0.533924,-0.433188,-0.424911,0.0792962,-0.0709664,70.0957,-0.470431,-1.7351,33.7075,98.993,0.024999,-0.595288,0.144275,-0.0892294,1.75643,-0.000574013,-0.0461958,0.710127,5.52858,-69.8968,60.3165,-0.467075,-2.26932,0.710127,5.52858,-60.1031
2259.62,77.727,86.8731,179.64,-0.564045,-0.457305,0.533924,-0.433188,-0.424911,0.0792962,-0.0709664,70.0957,-0.470431,-1.7351,33.7075,98.993,0.024999,-0.595288,0.144275,-0.0892294,1.75643,-0.000574013,-0.0461958,0.710127,5.52858,-69.8968,60.3165,-0.467075,-2.26932,0.710127,5.52858,-60.1031
2259.65,81.8957,86.7768,-177.384,-0.559024,-0.464301,0.529586,-0.437556,-0.43789,-0.00731973,-0.0906893,69.6273,-0.509532,-1.81088,33.7025,98.959,0.024999,-0.604186,0.0165591,-0.116687,1.74328,-0.00387693,-0.0440194,0.387678,5.74684,-69.4141,59.849,-0.534664,-2.36095,0.387678,5.74684,-59.6204
2259.67,81.8957,86.7768,-177.384,-0.559024,-0.464301,0.529586,-0.437556,-0.43789,-0.00731973,-0.0906893,69.6273,-0.509532,-1.81088,33.7025,98.959,0.024999,-0.604186,0.0165591,-0.116687,1.74328,-0.00387693,-0.0440194,0.387678,5.74684,-69.4141,59.849,-0.534664,-2.36095,0.387678,5.74684,-59.6204
2259.7,84.2078,86.8114,-175.703,-0.555911,-0.467651,0.527727,-0.440193,-0.46141,-0.0475728,-0.0846487,69.0911,0.776828,-1.56718,33.7,98.982,0.025001,-0.636086,-0.0403935,-0.120795,1.73487,0.00126113,-0.0408096,1.42698,5.22816,-68.9004,59.3125,0.73601,-2.11043,1.42698,5.22816,-59.1067
2259.72,84.2078,86.8114,-175.703,-0.555911,-0.467651,0.527727,-0.440193,-0.46141,-0.0475728,-0.0846487,69.0911,0.776828,-1.56718,33.7,98.982,0.025001,-0.636086,-0.0403935,-0.120795,1.73487,0.00126113,-0.0408096,1.42698,5.22816,-68.9004,59.3125,0.73601,-2.11043,1.42698,5.22816,-59.1067
2259.75,88.515,87.0856,-172.701,-0.548701,-0.473438,0.524593,-0.44675,-0.480936,-0.156228,-0.0606693,68.2422,0.370246,-1.22794,33.705,98.914,0.025001,-0.661909,-0.186599,-0.0874679,1.71316,0.000600549,-0.028587,0.643298,4.62404,-68.0944,58.4611,0.306985,-1.72186,0.643298,4.62404,-58.3007
2259.78,94.3977,87.5991,-168.26,-0.539772,-0.4787,0.52197,-0.455017,-0.609305,-0.212319,-0.0539995,66.7444,0.866606,-1.90083,33.7,98.846,0.025001,-0.77781,-0.293354,-0.0858817,1.67551,-0.0196207,-0.0409259,0.888126,4.56081,-66.6153,56.9593,0.783129,-2.30252,0.888126,4.56081,-56.8215
2259.8,94.3977,87.5991,-168.26,-0.539772,-0.4787,0.52197,-0.455017,-0.609305,-0.212319,-0.0539995,66.7444,0.866606,-1.90083,33.7,98.846,0.025001,-0.77781,-0.293354,-0.0858817,1.67551,-0.0196207,-0.0409259,0.888126,4.56081,-66.6153,56.9593,0.783129,-2.30252,0.888126,4.56081,-56.8215
2259.83,98.5846,88.3,-166.084,-0.528486,-0.484872,0.51683,-0.467428,-0.731931,-0.258785,0.0434347,64.9822,0.789066,-1.87329,33.71,98.827,0.025001,-1.04275,-0.373904,0.0453558,1.63853,0.00170663,-0.0371344,0.672064,3.69741,-64.9052,55.1927,0.719185,-2.15532,0.672064,3.69741,-55.1115
2259.85,98.5846,88.3,-166.084,-0.528486,-0.484872,0.51683,-0.467428,-0.731931,-0.258785,0.0434347,64.9822,0.789066,-1.87329,33.71,98.827,0.025001,-1.04275,-0.373904,0.0453558,1.63853,0.00170663,-0.0371344,0.672064,3.69741,-64.9052,55.1927,0.719185,-2.15532,0.672064,3.69741,-55.1115
2259.88,97.4125,88.6507,-168.347,-0.522952,-0.487907,0.513289,-0.474344,-0.783801,-0.215713,0.0932134,64.2593,0.639913,-2.59052,33.71,98.827,0.024999,-1.0999,-0.333401,0.114371,1.61514,0.00516882,-0.0574285,0.634568,4.03608,-64.1848,54.4683,0.593326,-2.8164,0.634568,4.03608,-54.3911
2259.9,77.1703,89.2535,169.246,-0.512821,-0.493376,0.505106,-0.488326,-0.727527,-0.202111,0.149022,63.6047,0.370289,-1.85119,33.7075,98.766,0.024999,-1.06816,-0.294454,0.211668,1.59387,0.00527973,-0.0401474,0.621236,2.64512,-63.5747,53.8118,0.394119,-1.97666,0.621236,2.64512,-53.7809
2259.93,77.1703,89.2535,169.246,-0.512821,-0.493376,0.505106,-0.488326,-0.727527,-0.202111,0.149022,63.6047,0.370289,-1.85119,33.7075,98.766,0.024999,-1.06816,-0.294454,0.211668,1.59387,0.00527973,-0.0401474,0.621236,2.64512,-63.5747,53.8118,0.394119,-1.97666,0.621236,2.64512,-53.7809
2259.95,15.75,89.3948,105.731,-0.50317,-0.498249,0.496654,-0.501899,-0.743366,-0.166758,0.129385,63.8947,-0.592769,-2.25955,33.7075,98.702,0.024999,-1.05543,-0.262816,0.210691,1.60698,-0.00959409,-0.0460632,0.0560365,2.44255,-63.8907,54.1015,-0.493199,-2.2876,0.0560365,2.44255,-54.0969
2259.98,15.75,89.3948,105.731,-0.50317,-0.498249,0.496654,-0.501899,-0.743366,-0.166758,0.129385,63.8947,-0.592769,-2.25955,33.7075,98.702,0.024999,-1.05543,-0.262816,0.210691,1.60698,-0.00959409,-0.0460632,0.0560365,2.44255,-63.8907,54.1015,-0.493199,-2.2876,0.0560365,2.44255,-54.0969
2260,-1.42763,89.2572,87.5121,-0.498473,-0.501242,0.492214,-0.507944,-0.733557,-0.104455,0.100439,59.7163,-0.148148,-2.0748,33.7,98.687,0.025001,-1.05034,-0.182546,0.165183,1.55441,-0.00895059,-0.0531909,0.587747,2.0524,-59.7143,49.9234,-0.0212497,-2.06929,0.587747,2.0524,-49.9206
2260.03,-1.42763,89.2572,87.5121,-0.498473,-0.501242,0.492214,-0.507944,-0.733557,-0.104455,0.100439,59.7163,-0.148148,-2.0748,33.7,98.687,0.025001,-1.05034,-0.182546,0.165183,1.55441,-0.00895059,-0.0531909,0.587747,2.0524,-59.7143,49.9234,-0.0212497,-2.06929,0.587747,2.0524,-49.9206
2260.05,-10.0285,89.065,76.7905,-0.489088,-0.508849,0.482738,-0.518488,-0.740925,-0.0180072,0.0199247,37.8809,-0.663989,-1.04002,33.705,98.645,0.025001,-1.06509,-0.0417683,0.0623626,1.0368,-0.0116364,-0.0339598,-0.111666,0.893872,-37.8903,28.0884,-0.508354,-1.00349,-0.111666,0.893872,-28.0965
2260.08,-5.18878,89.1473,79.5389,-0.479641,-0.51826,0.473281,-0.526646,-0.721557,0.0853433,-0.046226,17.5752,0.181768,-1.13715,33.71,98.589,0.025,-1.05132,0.0860157,-0.0489723,0.546482,-0.0122856,-0.0347367,0.337024,1.12539,-17.5737,7.78253,0.325112,-1.11068,0.337024,1.12539,-7.77991
2260.1,-5.18878,89.1473,79.5389,-0.479641,-0.51826,0.473281,-0.526646,-0.721557,0.0853433,-0.046226,17.5752,0.181768,-1.13715,33.71,98.589,0.025,-1.05132,0.0860157,-0.0489723,0.546482,-0.0122856,-0.0347367,0.337024,1.12539,-17.5737,7.78253,0.325112,-1.11068,0.337024,1.12539,-7.77991
2260.13,18.6679,89.2579,101.343,-0.470994,-0.528619,0.463062,-0.533198,-0.70487,0.106206,-0.0356568,1.81881,-0.346923,0.408134,33.705,98.562,0.025001,-0.999985,0.17044,-0.0437567,0.099888,-0.00486787,0.00706596,-0.269702,-0.441486,-1.8241,-7.97412,-0.222553,0.383187,-0.269702,-0.441486,7.96965
2260.15,18.6679,89.2579,101.343,-0.470994,-0.528619,0.463062,-0.533198,-0.70487,0.106206,-0.0356568,1.81881,-0.346923,0.408134,33.705,98.562,0.025001,-0.999985,0.17044,-0.0437567,0.099888,-0.00486787,0.00706596,-0.269702,-0.441486,-1.8241,-7.97412,-0.222553,0.383187,-0.269702,-0.441486,7.96965
2260.18,29.642,89.2748,111.275,-0.4664,-0.533636,0.457966,-0.536629,-0.792077,0.0803691,-0.0474514,-0.957717,-1.46454,0.209822,33.7075,98.555,0.024999,-1.0441,0.131638,-0.0490285,-0.00354579,-0.0173399,0.00983093,-1.42885,-0.426637,0.939403,-10.7507,-1.34902,0.164843,-1.42885,-0.426637,10.7331
2260.2,29.642,89.2748,111.275,-0.4664,-0.533636,0.457966,-0.536629,-0.792077,0.0803691,-0.0474514,-0.957717,-1.46454,0.209822,33.7075,98.555,0.024999,-1.0441,0.131638,-0.0490285,-0.00354579,-0.0173399,0.00983093,-1.42885,-0.426637,0.939403,-10.7507,-1.34902,0.164843,-1.42885,-0.426637,10.7331
2260.23,47.0392,89.1602,126.633,-0.457757,-0.542984,0.447409,-0.543556,-0.693857,0.0870145,0.00357574,-2.04733,-1.06943,0.130828,33.71,98.509,0.025,-1.00445,0.132643,0.0265323,-0.0508242,-0.0110712,0.0116575,-1.04859,-0.343735,2.03339,-11.84,-0.954237,0.0451757,-1.04859,-0.343735,11.8271
2260.25,59.692,88.9538,137.282,-0.449396,-0.552044,0.436622,-0.550138,-0.70868,0.102018,0.0277918,-1.94858,0.350658,0.0277637,33.7025,98.426,0.024999,-1.0068,0.154173,0.0259483,-0.0492466,-0.00471158,-0.00219085,0.330452,0.0174866,1.95222,-11.7407,0.472009,-0.10366,0.330452,0.0174866,11.746
2260.28,59.692,88.9538,137.282,-0.449396,-0.552044,0.436622,-0.550138,-0.70868,0.102018,0.0277918,-1.94858,0.350658,0.0277637,33.7025,98.426,0.024999,-1.0068,0.154173,0.0259483,-0.0492466,-0.00471158,-0.00219085,0.330452,0.0174866,1.95222,-11.7407,0.472009,-0.10366,0.330452,0.0174866,11.746
2260.31,55.3602,88.7025,130.923,-0.441176,-0.559269,0.425184,-0.558391,-0.705418,-0.0242685,0.121626,-1.95099,0.229673,0.207774,33.71,98.339,0.025,-1.02458,0.000400967,0.162637,-0.0449428,0.0101493,0.0261425,0.249102,-0.180311,1.95133,-11.7422,0.39727,0.0624813,0.249102,-0.180311,11.7451
2260.33,55.3602,88.7025,130.923,-0.441176,-0.559269,0.425184,-0.558391,-0.705418,-0.0242685,0.121626,-1.95099,0.229673,0.207774,33.71,98.339,0.025,-1.02458,0.000400967,0.162637,-0.0449428,0.0101493,0.0261425,0.249102,-0.180311,1.95133,-11.7422,0.39727,0.0624813,0.249102,-0.180311,11.7451
2260.36,49.3455,88.5785,123.903,-0.437016,-0.562083,0.419501,-0.563116,-0.686156,-0.0318659,0.13718,-1.92093,0.548186,0.253552,33.705,98.335,0.025,-1.00973,-0.0363941,0.191536,-0.0489106,0.00208162,0.00107853,0.564795,-0.134667,1.92812,-11.7117,0.749871,0.118009,0.564795,-0.134667,11.7219
2260.38,38.2094,88.2843,110.853,-0.428992,-0.56683,0.408583,-0.572477,-0.656901,-0.0645576,0.138001,-1.7858,-0.401267,0.546528,33.71,98.248,0.025001,-0.95168,-0.073015,0.207361,-0.0472301,-0.00464083,0.00568637,-0.261778,-0.674264,1.76795,-11.5752,-0.127215,0.442134,-0.261778,-0.674264,11.5617
2260.41,38.2094,88.2843,110.853,-0.428992,-0.56683,0.408583,-0.572477,-0.656901,-0.0645576,0.138001,-1.7858,-0.401267,0.546528,33.71,98.248,0.025001,-0.95168,-0.073015,0.207361,-0.0472301,-0.00464083,0.00568637,-0.261778,-0.674264,1.76795,-11.5752,-0.127215,0.442134,-0.261778,-0.674264,11.5617
2260.43,28.1383,88.0422,98.9628,-0.420494,-0.57083,0.398861,-0.581592,-0.636383,-0.097445,0.0877865,-1.80951,-0.33591,0.160237,33.705,98.214,0.025,-0.91583,-0.13212,0.146029,-0.0461655,-0.0140875,0.00551111,-0.318973,-0.290738,1.79626,-11.5975,-0.00538778,0.108107,-0.318973,-0.290738,11.59
2260.46,28.1383,88.0422,98.9628,-0.420494,-0.57083,0.398861,-0.581592,-0.636383,-0.097445,0.0877865,-1.80951,-0.33591,0.160237,33.705,98.214,0.025,-0.91583,-0.13212,0.146029,-0.0461655,-0.0140875,0.00551111,-0.318973,-0.290738,1.79626,-11.5975,-0.00538778,0.108107,-0.318973,-0.290738,11.59
2260.48,20.1348,87.894,89.0694,-0.410701,-0.575349,0.389516,-0.590403,-0.685923,-0.0912546,0.038502,-1.79596,-1.05177,0.0743283,33.71,98.169,0.025,-0.96819,-0.129714,0.0720102,-0.0475194,-0.0106219,-0.00213959,-1.01606,-0.469878,1.75615,-11.5831,-0.691916,0.0801737,-1.01606,-0.469878,11.5499
2260.51,20.1348,87.894,89.0694,-0.410701,-0.575349,0.389516,-0.590403,-0.685923,-0.0912546,0.038502,-1.79596,-1.05177,0.0743283,33.71,98.169,0.025,-0.96819,-0.129714,0.0720102,-0.0475194,-0.0106219,-0.00213959,-1.01606,-0.469878,1.75615,-11.5831,-0.691916,0.0801737,-1.01606,-0.469878,11.5499
2260.53,16.6481,87.8589,84.6036,-0.405325,-0.577888,0.384899,-0.594651,-0.701219,-0.089164,0.0143492,-1.91699,-0.580319,-0.126167,33.7,98.142,0.024999,-0.984817,-0.129242,0.0344897,-0.0470939,-0.0129697,0.00159238,-0.653472,-0.121268,1.89362,-11.7039,-0.21603,-0.0917546,-0.653472,-0.121268,11.6874
2260.56,12.4585,87.8191,78.391,-0.394285,-0.583704,0.375113,-0.602594,-0.719108,-0.0227721,0.000520572,-1.86262,-0.571869,-0.422782,33.71,98.101,0.024999,-1.02811,-0.0528078,0.0109369,-0.0486817,-0.00963987,-0.0132407,-0.763328,0.137621,1.83672,-11.6493,-0.206785,-0.347782,-0.763328,0.137621,11.6305
2260.58,12.4585,87.8191,78.391,-0.394285,-0.583704,0.375113,-0.602594,-0.719108,-0.0227721,0.000520572,-1.86262,-0.571869,-0.422782,33.71,98.101,0.024999,-1.02811,-0.0528078,0.0109369,-0.0486817,-0.00963987,-0.0132407,-0.763328,0.137621,1.83672,-11.6493,-0.206785,-0.347782,-0.763328,0.137621,11.6305
2260.61,10.8155,87.827,74.7427,-0.383368,-0.589949,0.365155,-0.609632,-0.684575,-0.0287805,-0.0284085,-1.88975,-0.114409,0.14048,33.7075,98.051,0.024999,-0.995041,-0.0344175,-0.0182553,-0.0450222,-0.0140918,0.0106908,-0.111353,-0.189904,1.8856,-11.6764,0.243853,0.238202,-0.111353,-0.189904,11.6793
2260.63,10.8155,87.827,74.7427,-0.383368,-0.589949,0.365155,-0.609632,-0.684575,-0.0287805,-0.0284085,-1.88975,-0.114409,0.14048,33.7075,98.051,0.024999,-0.995041,-0.0344175,-0.0182553,-0.0450222,-0.0140918,0.0106908,-0.111353,-0.189904,1.8856,-11.6764,0.243853,0.238202,-0.111353,-0.189904,11.6793
2260.66,10.523,87.8821,72.3678,-0.371954,-0.596701,0.354653,-0.616294,-0.746036,0.0269183,-0.0060796,-1.95678,-0.337907,-0.337663,33.71,98.01,0.024999,-1.0622,0.0257411,-0.00879959,-0.0479282,-0.00633144,-0.00626097,-0.528073,0.125108,1.93977,-11.7438,0.00705618,-0.228021,-0.528073,0.125108,11.7335
2260.68,12.2206,87.8915,72.9703,-0.366299,-0.600364,0.348686,-0.619521,-0.769795,0.0509606,0.0170613,-1.92547,0.249454,-0.0681546,33.71,97.987,0.025001,-1.09722,0.0642391,0.0162021,-0.0476666,-0.00298519,-0.000812728,0.114957,0.166325,1.9322,-11.7126,0.594021,0.0373853,0.114957,0.166325,11.726
2260.71,12.2206,87.8915,72.9703,-0.366299,-0.600364,0.348686,-0.619521,-0.769795,0.0509606,0.0170613,-1.92547,0.249454,-0.0681546,33.71,97.987,0.025001,-1.09722,0.0642391,0.0162021,-0.0476666,-0.00298519,-0.000812728,0.114957,0.166325,1.9322,-11.7126,0.594021,0.0373853,0.114957,0.166325,11.726
2260.73,19.0213,87.8359,77.4893,-0.355238,-0.608043,0.33531,-0.625826,-0.814447,0.102979,0.0615664,-1.87927,0.0167795,0.0467025,33.705,97.919,0.025001,-1.15928,0.13724,0.0824259,-0.0475842,-0.00222552,-0.00139396,-0.0283881,-0.0541688,1.87893,-11.666,0.377864,0.126823,-0.0283881,-0.0541688,11.6727
2260.76,19.0213,87.8359,77.4893,-0.355238,-0.608043,0.33531,-0.625826,-0.814447,0.102979,0.0615664,-1.87927,0.0167795,0.0467025,33.705,97.919,0.025001,-1.15928,0.13724,0.0824259,-0.0475842,-0.00222552,-0.00139396,-0.0283881,-0.0541688,1.87893,-11.666,0.377864,0.126823,-0.0283881,-0.0541688,11.6727
2260.78,30.2555,87.6899,86.2934,-0.34423,-0.616606,0.319981,-0.631597,-0.857275,0.178231,0.0818255,-1.79766,0.218435,0.105902,33.71,97.896,0.025001,-1.23116,0.237755,0.112945,-0.0483148,-0.00288534,-0.0119375,0.177585,-0.00241045,1.80527,-11.5835,0.612379,0.131423,0.177585,-0.00241045,11.599
2260.81,30.2555,87.6899,86.2934,-0.34423,-0.616606,0.319981,-0.631597,-0.857275,0.178231,0.0818255,-1.79766,0.218435,0.105902,33.71,97.896,0.025001,-1.23116,0.237755,0.112945,-0.0483148,-0.00288534,-0.0119375,0.177585,-0.00241045,1.80527,-11.5835,0.612379,0.131423,0.177585,-0.00241045,11.599
2260.83,36.2424,87.5826,91.0368,-0.338673,-0.621033,0.311942,-0.634279,-0.858309,0.166391,0.0763911,-1.75054,0.0349642,0.521729,33.7075,97.87,0.025,-1.24177,0.245936,0.119403,-0.0440063,-0.00886593,0.0100535,0.269782,-0.449808,1.75005,-11.5356,0.447997,0.514254,0.269782,-0.449808,11.5438
2260.86,45.5594,87.3223,97.8898,-0.327409,-0.629293,0.296033,-0.639655,-0.839682,0.131525,0.0722549,-1.69205,-0.525841,0.357862,33.7075,97.851,0.025,-1.21082,0.206743,0.116298,-0.0417139,-0.00830968,0.0117427,-0.252447,-0.660603,1.66358,-11.4751,-0.0726463,0.295058,-0.252447,-0.660603,11.4573
2260.88,45.5594,87.3223,97.8898,-0.327409,-0.629293,0.296033,-0.639655,-0.839682,0.131525,0.0722549,-1.69205,-0.525841,0.357862,33.7075,97.851,0.025,-1.21082,0.206743,0.116298,-0.0417139,-0.00830968,0.0117427,-0.252447,-0.660603,1.66358,-11.4751,-0.0726463,0.295058,-0.252447,-0.660603,11.4573
2260.91,51.2483,87.0937,101.201,-0.315892,-0.636504,0.281058,-0.645044,-0.811434,0.0912472,0.0527294,-1.67637,-0.488741,0.195691,33.7075,97.779,0.024999,-1.17346,0.143682,0.087763,-0.0422088,-0.00594579,0.0060501,-0.301014,-0.53004,1.64798,-11.4575,-0.00161153,0.0992296,-0.301014,-0.53004,11.4417
2260.93,51.2483,87.0937,101.201,-0.315892,-0.636504,0.281058,-0.645044,-0.811434,0.0912472,0.0527294,-1.67637,-0.488741,0.195691,33.7075,97.779,0.024999,-1.17346,0.143682,0.087763,-0.0422088,-0.00594579,0.0060501,-0.301014,-0.53004,1.64798,-11.4575,-0.00161153,0.0992296,-0.301014,-0.53004,11.4417
2260.96,54.5017,86.9763,102.223,-0.304207,-0.642683,0.267661,-0.65021,-0.761452,0.0390642,0.0102733,-1.59184,-0.569683,0.349928,33.71,97.76,0.024999,-1.09861,0.0765897,0.0314734,-0.0397337,-0.00849377,0.00990837,-0.234336,-0.7098,1.55634,-11.3719,-0.0647733,0.240552,-0.234336,-0.7098,11.3501
2260.98,54.5017,86.9763,102.223,-0.304207,-0.642683,0.267661,-0.65021,-0.761452,0.0390642,0.0102733,-1.59184,-0.569683,0.349928,33.71,97.76,0.024999,-1.09861,0.0765897,0.0314734,-0.0397337,-0.00849377,0.00990837,-0.234336,-0.7098,1.55634,-11.3719,-0.0647733,0.240552,-0.234336,-0.7098,11.3501
2261.01,55.1184,86.9783,101.747,-0.298024,-0.645405,0.261492,-0.652883,-0.755218,0.00761928,-0.015755,-1.50149,-0.285309,0.646491,33.71,97.737,0.025,-1.0951,0.0330939,-0.00210253,-0.0390501,-0.00599923,0.0109782,0.191625,-0.730339,1.47774,-11.2816,0.220175,0.541377,0.191625,-0.730339,11.2715
2261.03,54.3272,87.1408,98.8577,-0.284995,-0.650091,0.250675,-0.658272,-0.701812,-0.0447307,-0.0763101,-1.61396,0.168206,0.611212,33.71,97.669,0.025001,-1.02937,-0.0531446,-0.0934003,-0.040754,-0.00352493,0.00891603,0.506681,-0.374197,1.61555,-11.3955,0.650893,0.53599,0.506681,-0.374197,11.4093
2261.06,54.3272,87.1408,98.8577,-0.284995,-0.650091,0.250675,-0.658272,-0.701812,-0.0447307,-0.0763101,-1.61396,0.168206,0.611212,33.71,97.669,0.025001,-1.02937,-0.0531446,-0.0934003,-0.040754,-0.00352493,0.00891603,0.506681,-0.374197,1.61555,-11.3955,0.650893,0.53599,0.506681,-0.374197,11.4093
2261.09,50.6552,87.4415,93.2709,-0.271894,-0.653718,0.241873,-0.663494,-0.645555,-0.0879587,-0.111587,-1.7059,-0.256397,0.262725,33.71,97.635,0.025,-0.952006,-0.10985,-0.14378,-0.0414613,-0.00698865,0.00365152,-0.0283663,-0.425254,1.6921,-11.4899,0.180087,0.23778,-0.0283663,-0.425254,11.4858
2261.11,50.6552,87.4415,93.2709,-0.271894,-0.653718,0.241873,-0.663494,-0.645555,-0.0879587,-0.111587,-1.7059,-0.256397,0.262725,33.71,97.635,0.025,-0.952006,-0.10985,-0.14378,-0.0414613,-0.00698865,0.00365152,-0.0283663,-0.425254,1.6921,-11.4899,0.180087,0.23778,-0.0283663,-0.425254,11.4858
2261.14,41.6466,87.7183,82.4376,-0.258811,-0.656046,0.233941,-0.669247,-0.645746,-0.157482,-0.0884446,-1.65079,-0.163504,0.302939,33.71,97.601,0.025,-0.919067,-0.209366,-0.126741,-0.0409072,0.000517136,0.011426,0.0734996,-0.365308,1.64461,-11.4368,0.223012,0.354253,0.0734996,-0.365308,11.4384
2261.16,35.2794,87.7759,75.1454,-0.252294,-0.65679,0.229751,-0.67245,-0.652102,-0.164751,-0.0676713,-1.68425,-0.0350223,-0.0198743,33.71,97.59,0.024999,-0.933159,-0.23258,-0.0983342,-0.0418901,0.00328451,0.00252293,-0.0910422,-0.0518791,1.68147,-11.4706,0.332381,0.0775725,-0.0910422,-0.0518791,11.4752
2261.19,35.2794,87.7759,75.1454,-0.252294,-0.65679,0.229751,-0.67245,-0.652102,-0.164751,-0.0676713,-1.68425,-0.0350223,-0.0198743,33.71,97.59,0.024999,-0.933159,-0.23258,-0.0983342,-0.0418901,0.00328451,0.00252293,-0.0910422,-0.0518791,1.68147,-11.4706,0.332381,0.0775725,-0.0910422,-0.0518791,11.4752
2261.21,22.8746,87.7389,60.8441,-0.2393,-0.658122,0.220678,-0.678906,-0.676153,-0.159044,-0.0438263,-1.63208,-0.196647,0.268879,33.71,97.533,0.024999,-0.961549,-0.22621,-0.0608883,-0.0415235,-0.00486282,0.00111822,0.0316771,-0.345471,1.6292,-11.4182,0.140827,0.457147,0.0316771,-0.345471,11.423
2261.24,22.8746,87.7389,60.8441,-0.2393,-0.658122,0.220678,-0.678906,-0.676153,-0.159044,-0.0438263,-1.63208,-0.196647,0.268879,33.71,97.533,0.024999,-0.961549,-0.22621,-0.0608883,-0.0415235,-0.00486282,0.00111822,0.0316771,-0.345471,1.6292,-11.4182,0.140827,0.457147,0.0316771,-0.345471,11.423
2261.26,13.9381,87.5721,49.9639,-0.226538,-0.659588,0.210683,-0.685009,-0.700385,-0.109469,-0.00156015,-1.71895,0.0123597,-0.531609,33.71,97.476,0.024999,-0.990537,-0.177087,-0.0132386,-0.0439507,0.0034877,-0.0104909,-0.493054,0.305194,1.70333,-11.5039,0.330004,-0.264732,-0.493054,0.305194,11.4971
2261.29,13.9381,87.5721,49.9639,-0.226538,-0.659588,0.210683,-0.685009,-0.700385,-0.109469,-0.00156015,-1.71895,0.0123597,-0.531609,33.71,97.476,0.024999,-0.990537,-0.177087,-0.0132386,-0.0439507,0.0034877,-0.0104909,-0.493054,0.305194,1.70333,-11.5039,0.330004,-0.264732,-0.493054,0.305194,11.4971
2261.31,11.8479,87.3912,45.7866,-0.214082,-0.662042,0.198564,-0.690248,-0.748823,-0.0417271,0.0426465,-1.65202,0.150106,-0.0811753,33.7025,97.454,0.024999,-1.06685,-0.0716576,0.0601025,-0.0416249,-0.00308601,-0.00348914,-0.0571834,0.154405,1.65263,-11.4356,0.469611,0.229674,-0.0571834,0.154405,11.4464
2261.34,12.5322,87.3104,45.3674,-0.207831,-0.663568,0.191766,-0.692611,-0.780398,-0.0109046,0.063408,-1.63139,0.00979444,-0.198716,33.705,97.42,0.025001,-1.10618,-0.0323074,0.0863732,-0.0418031,-0.0042109,-0.00731251,-0.236244,0.0993987,1.62337,-11.4144,0.33684,0.124162,-0.236244,0.0993987,11.4171
2261.36,12.5322,87.3104,45.3674,-0.207831,-0.663568,0.191766,-0.692611,-0.780398,-0.0109046,0.063408,-1.63139,0.00979444,-0.198716,33.705,97.42,0.025001,-1.10618,-0.0323074,0.0863732,-0.0418031,-0.0042109,-0.00731251,-0.236244,0.0993987,1.62337,-11.4144,0.33684,0.124162,-0.236244,0.0993987,11.4171
2261.39,16.4459,87.1772,46.9872,-0.195337,-0.667118,0.177024,-0.696749,-0.811096,0.0368041,0.0903225,-1.60526,-0.35539,-0.142961,33.71,97.386,0.025001,-1.15813,0.0410864,0.130236,-0.0406166,-0.00396126,-0.00456462,-0.379126,-0.255696,1.58571,-11.3871,-0.00272027,0.186057,-0.379126,-0.255696,11.3795
2261.41,16.4459,87.1772,46.9872,-0.195337,-0.667118,0.177024,-0.696749,-0.811096,0.0368041,0.0903225,-1.60526,-0.35539,-0.142961,33.71,97.386,0.025001,-1.15813,0.0410864,0.130236,-0.0406166,-0.00396126,-0.00456462,-0.379126,-0.255696,1.58571,-11.3871,-0.00272027,0.186057,-0.379126,-0.255696,11.3795
2261.44,22.1911,87.0602,50.4101,-0.183058,-0.67093,0.16158,-0.700168,-0.812964,0.0522071,0.099613,-1.56795,-0.31072,0.0507911,33.71,97.352,0.025,-1.15951,0.0785318,0.14851,-0.0389305,-0.00559894,0.00101128,-0.176377,-0.328077,1.55527,-11.3488,0.0763709,0.370906,-0.176377,-0.328077,11.349
2261.46,25.1604,87.0033,52.2253,-0.176962,-0.67281,0.153845,-0.701672,-0.805604,0.0580213,0.0988145,-1.43186,-0.319535,0.122065,33.71,97.306,0.025,-1.15345,0.0862278,0.14686,-0.0379967,-0.00709506,0.00192963,-0.104223,-0.371804,1.42061,-11.2122,0.0851555,0.435689,-0.104223,-0.371804,11.2144
2261.49,25.1604,87.0033,52.2253,-0.176962,-0.67281,0.153845,-0.701672,-0.805604,0.0580213,0.0988145,-1.43186,-0.319535,0.122065,33.71,97.306,0.025,-1.15345,0.0862278,0.14686,-0.0379967,-0.00709506,0.00192963,-0.104223,-0.371804,1.42061,-11.2122,0.0851555,0.435689,-0.104223,-0.371804,11.2144
2261.51,30.684,86.887,55.4958,-0.164977,-0.676315,0.138735,-0.704368,-0.764802,0.0582753,0.083469,-1.47911,-0.357284,0.188835,33.71,97.295,0.024999,-1.11451,0.0861917,0.137517,-0.03715,-0.00853355,0.00261911,-0.0473663,-0.444395,1.46675,-11.2584,0.0810069,0.490112,-0.0473663,-0.444395,11.2605
2261.54,30.684,86.887,55.4958,-0.164977,-0.676315,0.138735,-0.704368,-0.764802,0.0582753,0.083469,-1.47911,-0.357284,0.188835,33.71,97.295,0.024999,-1.11451,0.0861917,0.137517,-0.03715,-0.00853355,0.00261911,-0.0473663,-0.444395,1.46675,-11.2584,0.0810069,0.490112,-0.0473663,-0.444395,11.2605
2261.56,34.7171,86.7681,57.3153,-0.152837,-0.679277,0.12414,-0.706974,-0.771212,0.0306812,0.0724676,-1.40662,-0.290382,0.272049,33.71,97.261,0.024999,-1.10331,0.0536385,0.117082,-0.0356811,-0.0057339,0.00430708,0.0745181,-0.417705,1.39889,-11.1848,0.174358,0.570232,0.0745181,-0.417705,11.1926
2261.59,34.7171,86.7681,57.3153,-0.152837,-0.679277,0.12414,-0.706974,-0.771212,0.0306812,0.0724676,-1.40662,-0.290382,0.272049,33.71,97.261,0.024999,-1.10331,0.0536385,0.117082,-0.0356811,-0.0057339,0.00430708,0.0745181,-0.417705,1.39889,-11.1848,0.174358,0.570232,0.0745181,-0.417705,11.1926
2261.61,37.0323,86.6186,57.4965,-0.140877,-0.6814,0.11023,-0.709716,-0.722769,-0.00375252,0.0607952,-1.37693,-0.449978,0.060239,33.7025,97.215,0.024999,-1.05366,0.00356758,0.100484,-0.0347453,-0.00549581,0.00284786,-0.165237,-0.49119,1.35406,-11.1536,0.0372009,0.370647,-0.165237,-0.49119,11.1478
2261.64,37.3172,86.5317,56.7607,-0.13501,-0.68205,0.10369,-0.711216,-0.693828,-0.0384285,0.0579705,-1.28171,0.453473,0.846933,33.71,97.193,0.025001,-1.02356,-0.0311651,0.0886902,-0.0328431,0.00313843,0.0123845,0.886689,0.097744,1.3304,-11.0575,0.949021,1.1717,0.886689,0.097744,11.1241
2261.67,37.3172,86.5317,56.7607,-0.13501,-0.68205,0.10369,-0.711216,-0.693828,-0.0384285,0.0579705,-1.28171,0.453473,0.846933,33.71,97.193,0.025001,-1.02356,-0.0311651,0.0886902,-0.0328431,0.00313843,0.0123845,0.886689,0.097744,1.3304,-11.0575,0.949021,1.1717,0.886689,0.097744,11.1241
2261.69,35.2599,86.3273,52.7961,-0.123481,-0.682192,0.0919842,-0.714776,-0.653126,-0.0834143,0.00395006,-1.40181,-0.7406,0.0156949,33.71,97.17,0.025,-0.945049,-0.120225,0.0298817,-0.0350631,-0.0164653,-0.000562736,-0.280532,-0.762061,1.36175,-11.1754,-0.240912,0.395032,-0.280532,-0.762061,11.1555
2261.72,35.2599,86.3273,52.7961,-0.123481,-0.682192,0.0919842,-0.714776,-0.653126,-0.0834143,0.00395006,-1.40181,-0.7406,0.0156949,33.71,97.17,0.025,-0.945049,-0.120225,0.0298817,-0.0350631,-0.0164653,-0.000562736,-0.280532,-0.762061,1.36175,-11.1754,-0.240912,0.395032,-0.280532,-0.762061,11.1555
2261.74,31.98,86.2055,47.7443,-0.111922,-0.682073,0.0819121,-0.718012,-0.602305,-0.0918992,-0.0116701,-1.3128,0.115747,0.287433,33.71,97.147,0.025001,-0.886239,-0.12102,-0.00817078,-0.034345,-0.000250866,0.000110944,0.233855,-0.0130337,1.32838,-11.0851,0.595466,0.723266,0.233855,-0.0130337,11.1221
2261.77,28.3111,85.9813,42.3799,-0.100886,-0.681129,0.0721989,-0.721577,-0.573854,-0.141637,-0.0133092,-1.29545,0.0684527,0.407649,33.71,97.079,0.025,-0.843599,-0.187405,-0.00363627,-0.0324477,-0.00142941,0.0104354,0.331379,-0.0761574,1.31661,-11.0651,0.531107,0.914678,0.331379,-0.0761574,11.1104
2261.79,28.3111,85.9813,42.3799,-0.100886,-0.681129,0.0721989,-0.721577,-0.573854,-0.141637,-0.0133092,-1.29545,0.0684527,0.407649,33.71,97.079,0.025,-0.843599,-0.187405,-0.00363627,-0.0324477,-0.00142941,0.0104354,0.331379,-0.0761574,1.31661,-11.0651,0.531107,0.914678,0.331379,-0.0761574,11.1104
2261.82,26.2213,85.8321,39.4757,-0.0954995,-0.680315,0.0676044,-0.72352,-0.569045,-0.148229,-0.013573,-1.33802,-0.109672,0.280813,33.71,97.068,0.025,-0.82304,-0.208733,-0.00850524,-0.0338361,-0.00236043,0.00203074,0.160598,-0.214274,1.34516,-11.1059,0.342866,0.830261,0.160598,-0.214274,11.1389
2261.84,26.2213,85.8321,39.4757,-0.0954995,-0.680315,0.0676044,-0.72352,-0.569045,-0.148229,-0.013573,-1.33802,-0.109672,0.280813,33.71,97.068,0.025,-0.82304,-0.208733,-0.00850524,-0.0338361,-0.00236043,0.00203074,0.160598,-0.214274,1.34516,-11.1059,0.342866,0.830261,0.160598,-0.214274,11.1389
2261.87,22.4161,85.5043,34.041,-0.0846731,-0.678494,0.0584369,-0.727366,-0.56933,-0.149476,-0.0112864,-1.42312,-0.214138,-0.19182,33.71,97.034,0.024999,-0.823603,-0.21549,-0.00972726,-0.0340098,-0.00316563,-2.65E-05,-0.333363,-0.213303,1.39688,-11.1867,0.215597,0.444307,-0.333363,-0.213303,11.1906
2261.89,22.4161,85.5043,34.041,-0.0846731,-0.678494,0.0584369,-0.727366,-0.56933,-0.149476,-0.0112864,-1.42312,-0.214138,-0.19182,33.71,97.034,0.024999,-0.823603,-0.21549,-0.00972726,-0.0340098,-0.00316563,-2.65E-05,-0.333363,-0.213303,1.39688,-11.1867,0.215597,0.444307,-0.333363,-0.213303,11.1906
2261.92,19.6524,85.2058,29.6284,-0.0737574,-0.67693,0.0490965,-0.730695,-0.576208,-0.117615,-0.00941843,-1.4313,-0.179404,-0.169626,33.71,96.988,0.025,-0.8324,-0.17563,-0.00921074,-0.0340619,-0.00146126,-0.00014111,-0.310019,-0.18726,1.40655,-11.1908,0.225259,0.541889,-0.310019,-0.18726,11.2003
2261.94,18.2906,84.9707,26.5471,-0.0626866,-0.675914,0.0390233,-0.733272,-0.620391,-0.071766,0.0138053,-1.39796,-0.197869,-0.312577,33.71,96.954,0.024999,-0.874897,-0.111828,0.0187325,-0.0344215,-0.00451531,-0.00641852,-0.452765,-0.188947,1.36031,-11.154,0.18585,0.455462,-0.452765,-0.188947,11.1541
2261.97,18.2906,84.9707,26.5471,-0.0626866,-0.675914,0.0390233,-0.733272,-0.620391,-0.071766,0.0138053,-1.39796,-0.197869,-0.312577,33.71,96.954,0.024999,-0.874897,-0.111828,0.0187325,-0.0344215,-0.00451531,-0.00641852,-0.452765,-0.188947,1.36031,-11.154,0.18585,0.455462,-0.452765,-0.188947,11.1541
2261.99,18.2589,84.8863,25.6255,-0.0571679,-0.675684,0.0335928,-0.734204,-0.626184,-0.0441998,0.0337451,-1.35444,-0.0937951,-0.0545545,33.71,96.943,0.025001,-0.893358,-0.0755113,0.0411689,-0.0338191,-0.00275497,-0.0052153,-0.18044,-0.123739,1.34105,-11.1092,0.283749,0.732541,-0.18044,-0.123739,11.1348
2262.02,18.2589,84.8863,25.6255,-0.0571679,-0.675684,0.0335928,-0.734204,-0.626184,-0.0441998,0.0337451,-1.35444,-0.0937951,-0.0545545,33.71,96.943,0.025001,-0.893358,-0.0755113,0.0411689,-0.0338191,-0.00275497,-0.0052153,-0.18044,-0.123739,1.34105,-11.1092,0.283749,0.732541,-0.18044,-0.123739,11.1348
2262.04,19.5302,84.7505,25.0419,-0.0462423,-0.675585,0.021682,-0.735511,-0.666847,-0.00660821,0.0690182,-1.32767,-0.138575,-0.221587,33.71,96.898,0.025001,-0.943287,-0.0213493,0.0996877,-0.0328464,-0.00314232,-0.00335039,-0.347332,-0.156897,1.29837,-11.0803,0.240711,0.590244,-0.347332,-0.156897,11.0921
2262.07,19.5302,84.7505,25.0419,-0.0462423,-0.675585,0.021682,-0.735511,-0.666847,-0.00660821,0.0690182,-1.32767,-0.138575,-0.221587,33.71,96.898,0.025001,-0.943287,-0.0213493,0.0996877,-0.0328464,-0.00314232,-0.00335039,-0.347332,-0.156897,1.29837,-11.0803,0.240711,0.590244,-0.347332,-0.156897,11.0921
2262.09,21.9258,84.7183,25.4825,-0.0350185,-0.676184,0.00882279,-0.735847,-0.68813,0.039405,0.0777681,-1.2712,-0.568759,0.0187281,33.71,96.863,0.025001,-0.982773,0.0511429,0.115638,-0.032498,-0.00576491,-0.00202831,-0.12425,-0.61216,1.24484,-11.0234,-0.180879,0.832574,-0.12425,-0.61216,11.0386
2262.12,23.4726,84.7368,26.0391,-0.0294142,-0.676701,0.00222346,-0.735667,-0.701355,0.06274,0.0863739,-1.21681,-0.65694,-0.0378673,33.71,96.852,0.024999,-0.987073,0.0801677,0.12645,-0.0326405,-0.0048816,-0.00333885,-0.168383,-0.698504,1.1821,-10.9693,-0.262558,0.769338,-0.168383,-0.698504,10.9759
2262.14,23.4726,84.7368,26.0391,-0.0294142,-0.676701,0.00222346,-0.735667,-0.701355,0.06274,0.0863739,-1.21681,-0.65694,-0.0378673,33.71,96.852,0.024999,-0.987073,0.0801677,0.12645,-0.0326405,-0.0048816,-0.00333885,-0.168383,-0.698504,1.1821,-10.9693,-0.262558,0.769338,-0.168383,-0.698504,10.9759
2262.17,27.2814,84.8131,27.8303,-0.0181855,-0.678008,-0.011418,-0.734741,-0.700882,0.0858852,0.102091,-1.20803,-0.225428,0.107973,33.71,96.818,0.024999,-1.00695,0.124988,0.147587,-0.0309238,-0.00384716,0.00208506,0.008779,-0.276493,1.2022,-10.9617,0.187929,0.89097,0.008779,-0.276493,10.9959
2262.2,27.2814,84.8131,27.8303,-0.0181855,-0.678008,-0.011418,-0.734741,-0.700882,0.0858852,0.102091,-1.20803,-0.225428,0.107973,33.71,96.818,0.024999,-1.00695,0.124988,0.147587,-0.0309238,-0.00384716,0.00208506,0.008779,-0.276493,1.2022,-10.9617,0.187929,0.89097,0.008779,-0.276493,10.9959
2262.22,31.6658,84.8951,30.2004,-0.00715438,-0.679336,-0.0252204,-0.733359,-0.693307,0.0889499,0.108837,-1.20153,-0.248892,0.132928,33.71,96.761,0.024999,-0.995678,0.132475,0.160675,-0.0298124,-0.0032945,0.00481266,0.0482881,-0.301516,1.19585,-10.9564,0.189473,0.886102,0.0482881,-0.301516,10.9896
2262.25,36.0076,84.9495,32.6,0.00344489,-0.680372,-0.0385619,-0.731844,-0.669316,0.0803254,0.101042,-1.13589,-0.32375,0.136078,33.71,96.727,0.025,-0.957628,0.122569,0.153025,-0.0289842,-0.00434466,0.00411956,0.0743766,-0.37374,1.12621,-10.8916,0.140773,0.862432,0.0743766,-0.37374,10.92
2262.27,36.0076,84.9495,32.6,0.00344489,-0.680372,-0.0385619,-0.731844,-0.669316,0.0803254,0.101042,-1.13589,-0.32375,0.136078,33.71,96.727,0.025,-0.957628,0.122569,0.153025,-0.0289842,-0.00434466,0.00411956,0.0743766,-0.37374,1.12621,-10.8916,0.140773,0.862432,0.0743766,-0.37374,10.92
2262.3,37.9584,84.9679,33.6109,0.00864333,-0.680735,-0.0449461,-0.731099,-0.646787,0.0698631,0.0860728,-1.12589,-0.552504,0.163972,33.71,96.75,0.025001,-0.935745,0.110721,0.140028,-0.0279264,-0.00629974,0.0063728,0.128031,-0.598828,1.10671,-10.8819,-0.076974,0.879408,0.128031,-0.598828,10.9005
2262.32,37.9584,84.9679,33.6109,0.00864333,-0.680735,-0.0449461,-0.731099,-0.646787,0.0698631,0.0860728,-1.12589,-0.552504,0.163972,33.71,96.75,0.025001,-0.935745,0.110721,0.140028,-0.0279264,-0.00629974,0.0063728,0.128031,-0.598828,1.10671,-10.8819,-0.076974,0.879408,0.128031,-0.598828,10.9005
2262.35,41.0787,84.9891,34.9109,0.0189762,-0.681048,-0.057033,-0.729768,-0.627118,0.0475075,0.0619551,-1.15118,-0.26254,0.0556456,33.71,96.682,0.025001,-0.901144,0.0763975,0.100729,-0.0279995,-0.00481131,0.00720439,0.00803654,-0.32085,1.13764,-10.9075,0.22703,0.757143,0.00803654,-0.32085,10.9314
2262.37,41.0787,84.9891,34.9109,0.0189762,-0.681048,-0.057033,-0.729768,-0.627118,0.0475075,0.0619551,-1.15118,-0.26254,0.0556456,33.71,96.682,0.025001,-0.901144,0.0763975,0.100729,-0.0279995,-0.00481131,0.00720439,0.00803654,-0.32085,1.13764,-10.9075,0.22703,0.757143,0.00803654,-0.32085,10.9314
2262.4,42.9506,85.0194,35.0204,0.0295198,-0.680866,-0.0681786,-0.72863,-0.603593,0.0368577,0.0254918,-1.08354,-0.183457,0.121665,33.7075,96.648,0.025001,-0.872552,0.0570368,0.0519971,-0.0275883,-0.00514004,0.00169874,0.0769721,-0.229,1.07896,-10.8403,0.304497,0.818006,0.0769721,-0.229,10.8727
2262.42,43.6711,85.0725,34.0568,0.0401293,-0.6803,-0.0782757,-0.727636,-0.582969,0.0162442,-0.00669583,-1.04844,-0.447981,0.123646,33.71,96.636,0.025001,-0.833998,0.0331334,0.00630945,-0.0260561,-0.0062092,0.00719678,0.131987,-0.482845,1.03182,-10.806,0.0231261,0.8206,0.131987,-0.482845,10.8256
2262.45,43.6711,85.0725,34.0568,0.0401293,-0.6803,-0.0782757,-0.727636,-0.582969,0.0162442,-0.00669583,-1.04844,-0.447981,0.123646,33.71,96.636,0.025001,-0.833998,0.0331334,0.00630945,-0.0260561,-0.0062092,0.00719678,0.131987,-0.482845,1.03182,-10.806,0.0231261,0.8206,0.131987,-0.482845,10.8256
2262.47,43.5826,85.099,33.1495,0.045466,-0.679829,-0.0829974,-0.727239,-0.568217,0.00987577,-0.021642,-1.0183,-0.552773,0.141868,33.71,96.614,0.025,-0.822473,0.0195222,-0.0144596,-0.0271126,-0.00552371,0.00289971,0.177088,-0.577459,0.998904,-10.7762,-0.0952223,0.842426,0.177088,-0.577459,10.7927
2262.5,43.5826,85.099,33.1495,0.045466,-0.679829,-0.0829974,-0.727239,-0.568217,0.00987577,-0.021642,-1.0183,-0.552773,0.141868,33.71,96.614,0.025,-0.822473,0.0195222,-0.0144596,-0.0271126,-0.00552371,0.00289971,0.177088,-0.577459,0.998904,-10.7762,-0.0952223,0.842426,0.177088,-0.577459,10.7927
2262.52,42.5521,85.1488,30.5343,0.0561363,-0.678548,-0.0917748,-0.726635,-0.550783,-0.00796212,-0.0469477,-1.03047,-0.244321,0.104619,33.71,96.58,0.024999,-0.79188,-0.00613218,-0.0527072,-0.0260093,-0.00416174,0.00351931,0.0890891,-0.276034,1.0239,-10.7891,0.176477,0.818014,0.0890891,-0.276034,10.8176
2262.55,40.5856,85.1769,27.0427,0.0667428,-0.676832,-0.0998584,-0.726273,-0.523752,-0.0337821,-0.061001,-0.991027,-0.0432166,0.332706,33.71,96.546,0.024999,-0.759051,-0.0353464,-0.078142,-0.024857,-0.00324718,0.00804687,0.269551,-0.018952,1.01078,-10.7501,0.331176,1.06614,0.269551,-0.018952,10.8045
2262.57,40.5856,85.1769,27.0427,0.0667428,-0.676832,-0.0998584,-0.726273,-0.523752,-0.0337821,-0.061001,-0.991027,-0.0432166,0.332706,33.71,96.546,0.024999,-0.759051,-0.0353464,-0.078142,-0.024857,-0.00324718,0.00804687,0.269551,-0.018952,1.01078,-10.7501,0.331176,1.06614,0.269551,-0.018952,10.8045
2262.6,38.1522,85.142,23.1275,0.0770907,-0.674623,-0.107637,-0.726192,-0.514282,-0.0410156,-0.0539213,-1.05363,-0.183525,0.135328,33.71,96.512,0.025,-0.743759,-0.0578164,-0.0779839,-0.0260574,0.00100699,0.0027177,0.107963,-0.197407,1.05428,-10.8122,0.142246,0.898072,0.107963,-0.197407,10.848
2262.62,38.1522,85.142,23.1275,0.0770907,-0.674623,-0.107637,-0.726192,-0.514282,-0.0410156,-0.0539213,-1.05363,-0.183525,0.135328,33.71,96.512,0.025,-0.743759,-0.0578164,-0.0779839,-0.0260574,0.00100699,0.0027177,0.107963,-0.197407,1.05428,-10.8122,0.142246,0.898072,0.107963,-0.197407,10.848
2262.65,37.1361,85.1142,21.3753,0.0821304,-0.673497,-0.111589,-0.726088,-0.524024,-0.0348519,-0.0467546,-1.13551,0.141343,-0.476621,33.705,96.496,0.025001,-0.743096,-0.0567312,-0.062864,-0.0257947,0.000173109,-0.000559188,-0.573056,-0.050956,1.09797,-10.8937,0.445365,0.300136,-0.573056,-0.050956,10.8917
2262.67,37.1361,85.1142,21.3753,0.0821304,-0.673497,-0.111589,-0.726088,-0.524024,-0.0348519,-0.0467546,-1.13551,0.141343,-0.476621,33.705,96.496,0.025001,-0.743096,-0.0567312,-0.062864,-0.0257947,0.000173109,-0.000559188,-0.573056,-0.050956,1.09797,-10.8937,0.445365,0.300136,-0.573056,-0.050956,10.8917
2262.7,35.7517,85.0952,18.4805,0.0922841,-0.671519,-0.119866,-0.725381,-0.532055,-0.00871346,-0.028668,-1.04343,0.227132,-0.0967075,33.71,96.478,0.025001,-0.765851,-0.0196704,-0.0393812,-0.0263577,-0.0013615,-0.00561967,-0.232125,0.136096,1.03792,-10.8013,0.492564,0.697482,-0.232125,0.136096,10.8317
2262.72,35.158,85.049,16.3794,0.101973,-0.669478,-0.128529,-0.724487,-0.523559,-0.0267573,0.00282112,-1.00116,0.221035,0.105411,33.71,96.432,0.025001,-0.759249,-0.0347491,0.00190772,-0.0237476,-0.00145152,0.00403386,-0.042494,0.193096,1.01153,-10.7584,0.459389,0.916346,-0.042494,0.193096,10.8053
2262.75,35.158,85.049,16.3794,0.101973,-0.669478,-0.128529,-0.724487,-0.523559,-0.0267573,0.00282112,-1.00116,0.221035,0.105411,33.71,96.432,0.025001,-0.759249,-0.0347491,0.00190772,-0.0237476,-0.00145152,0.00403386,-0.042494,0.193096,1.01153,-10.7584,0.459389,0.916346,-0.042494,0.193096,10.8053
2262.78,35.2328,85.003,15.6986,0.106588,-0.668364,-0.133096,-0.724026,-0.529913,-0.0329091,0.019831,-0.961498,0.397124,0.156527,33.71,96.421,0.024999,-0.75866,-0.0408096,0.0254371,-0.0240184,-3.30E-05,0.00396332,-0.0544792,0.377722,0.980329,-10.718,0.627948,0.97779,-0.0544792,0.377722,10.7741
2262.8,35.2328,85.003,15.6986,0.106588,-0.668364,-0.133096,-0.724026,-0.529913,-0.0329091,0.019831,-0.961498,0.397124,0.156527,33.71,96.421,0.024999,-0.75866,-0.0408096,0.0254371,-0.0240184,-3.30E-05,0.00396332,-0.0544792,0.377722,0.980329,-10.718,0.627948,0.97779,-0.0544792,0.377722,10.7741
2262.83,36.5547,84.8978,15.4497,0.11557,-0.666171,-0.143167,-0.722747,-0.564658,-0.022808,0.0659386,-1.00249,0.0352782,-0.117109,33.71,96.398,0.024999,-0.795795,-0.0321489,0.0902211,-0.023954,0.00089241,0.00145912,-0.193244,-0.0621119,0.989311,-10.7574,0.267304,0.722408,-0.193244,-0.0621119,10.7831
2262.85,38.7375,84.798,16.0078,0.124443,-0.664032,-0.15395,-0.721024,-0.570996,-0.0123185,0.0824854,-0.980731,-0.140232,-0.0649864,33.7025,96.36,0.024999,-0.812119,-0.0215843,0.117505,-0.0235222,-0.0056294,0.00147913,-0.0747906,-0.209832,0.967521,-10.7341,0.104643,0.788552,-0.0747906,-0.209832,10.7613
2262.88,38.7375,84.798,16.0078,0.124443,-0.664032,-0.15395,-0.721024,-0.570996,-0.0123185,0.0824854,-0.980731,-0.140232,-0.0649864,33.7025,96.36,0.024999,-0.812119,-0.0215843,0.117505,-0.0235222,-0.0056294,0.00147913,-0.0747906,-0.209832,0.967521,-10.7341,0.104643,0.788552,-0.0747906,-0.209832,10.7613
2262.9,41.3275,84.6906,16.9745,0.133032,-0.661854,-0.164939,-0.71906,-0.545024,-0.00319066,0.0942935,-0.97243,0.255785,-0.0171884,33.71,96.364,0.024999,-0.805349,-0.014731,0.140792,-0.0239155,-0.00363696,-0.00325055,-0.188894,0.166352,0.973647,-10.7242,0.520364,0.849589,-0.188894,0.166352,10.7674
2262.93,41.3275,84.6906,16.9745,0.133032,-0.661854,-0.164939,-0.71906,-0.545024,-0.00319066,0.0942935,-0.97243,0.255785,-0.0171884,33.71,96.364,0.024999,-0.805349,-0.014731,0.140792,-0.0239155,-0.00363696,-0.00325055,-0.188894,0.166352,0.973647,-10.7242,0.520364,0.849589,-0.188894,0.166352,10.7674
2262.95,42.7642,84.6389,17.6148,0.137148,-0.660806,-0.170407,-0.717974,-0.553097,-0.00732846,0.102824,-0.945131,0.0160403,0.00492237,33.71,96.307,0.025,-0.793559,-0.00793358,0.14935,-0.0225643,-0.00276563,0.00306562,-0.0672219,-0.043375,0.941888,-10.696,0.292951,0.877072,-0.0672219,-0.043375,10.7356
2262.98,42.7642,84.6389,17.6148,0.137148,-0.660806,-0.170407,-0.717974,-0.553097,-0.00732846,0.102824,-0.945131,0.0160403,0.00492237,33.71,96.307,0.025,-0.793559,-0.00793358,0.14935,-0.0225643,-0.00276563,0.00306562,-0.0672219,-0.043375,0.941888,-10.696,0.292951,0.877072,-0.0672219,-0.043375,10.7356
2263,45.8718,84.5379,19.1265,0.145254,-0.658737,-0.181459,-0.715569,-0.539403,0.00035779,0.113798,-0.907048,0.0549174,0.0636092,33.71,96.296,0.025001,-0.792566,0.000311764,0.166056,-0.0220351,-0.00165385,0.00256368,-0.0282725,0.01544,0.910362,-10.6563,0.360372,0.944392,-0.0282725,0.01544,10.7041
2263.03,49.0858,84.4268,20.739,0.15326,-0.656581,-0.19261,-0.712962,-0.545242,0.00602119,0.112199,-0.901627,0.0303776,-0.0154909,33.71,96.273,0.025001,-0.798143,0.00370586,0.168528,-0.0224147,-0.00472854,-0.00110211,-0.085394,-0.0467788,0.897003,-10.6491,0.367193,0.874033,-0.085394,-0.0467788,10.6907
2263.05,49.0858,84.4268,20.739,0.15326,-0.656581,-0.19261,-0.712962,-0.545242,0.00602119,0.112199,-0.901627,0.0303776,-0.0154909,33.71,96.273,0.025001,-0.798143,0.00370586,0.168528,-0.0224147,-0.00472854,-0.00110211,-0.085394,-0.0467788,0.897003,-10.6491,0.367193,0.874033,-0.085394,-0.0467788,10.6907
2263.08,51.9531,84.3319,22.0181,0.161369,-0.654354,-0.203436,-0.710208,-0.542427,0.00186461,0.0974992,-0.842901,-0.159757,0.214875,33.71,96.239,0.025001,-0.787514,0.0111225,0.149324,-0.0212053,-0.00456915,0.00239,0.214203,-0.097314,0.852539,-10.5888,0.202879,1.11162,0.214203,-0.097314,10.6463
2263.1,51.9531,84.3319,22.0181,0.161369,-0.654354,-0.203436,-0.710208,-0.542427,0.00186461,0.0974992,-0.842901,-0.159757,0.214875,33.71,96.239,0.025001,-0.787514,0.0111225,0.149324,-0.0212053,-0.00456915,0.00239,0.214203,-0.097314,0.852539,-10.5888,0.202879,1.11162,0.214203,-0.097314,10.6463
2263.13,53.2032,84.2904,22.487,0.165439,-0.653199,-0.208653,-0.70882,-0.538482,0.00903478,0.0865638,-0.833452,-0.323864,0.0758147,33.71,96.216,0.024999,-0.778459,0.0101909,0.136685,-0.0207235,-0.00675041,0.00106838,0.181098,-0.305887,0.823963,-10.5786,0.0487993,0.976082,0.181098,-0.305887,10.6177
2263.15,55.323,84.2254,23.0707,0.173641,-0.650818,-0.218662,-0.706025,-0.527717,0.0104075,0.0666861,-0.753055,-0.268468,0.196841,33.71,96.182,0.025,-0.765245,0.0180105,0.110518,-0.0204882,-0.00526994,0.00121653,0.266409,-0.18463,0.75687,-10.4971,0.117683,1.10344,0.266409,-0.18463,10.5506
2263.18,55.323,84.2254,23.0707,0.173641,-0.650818,-0.218662,-0.706025,-0.527717,0.0104075,0.0666861,-0.753055,-0.268468,0.196841,33.71,96.182,0.025,-0.765245,0.0180105,0.110518,-0.0204882,-0.00526994,0.00121653,0.266409,-0.18463,0.75687,-10.4971,0.117683,1.10344,0.266409,-0.18463,10.5506
2263.2,56.9288,84.2044,23.1817,0.181978,-0.648437,-0.227988,-0.703161,-0.513865,0.0173987,0.0424148,-0.811111,-0.235885,-0.0652558,33.7225,96.156,0.024999,-0.741895,0.0266914,0.0759508,-0.0197804,-0.00626649,0.00227005,0.0325124,-0.300372,0.791531,-10.5548,0.153426,0.843878,0.0325124,-0.300372,10.5853
2263.23,56.9288,84.2044,23.1817,0.181978,-0.648437,-0.227988,-0.703161,-0.513865,0.0173987,0.0424148,-0.811111,-0.235885,-0.0652558,33.7225,96.156,0.024999,-0.741895,0.0266914,0.0759508,-0.0197804,-0.00626649,0.00227005,0.0325124,-0.300372,0.791531,-10.5548,0.153426,0.843878,0.0325124,-0.300372,10.5853
2263.25,58.0489,84.2295,22.8301,0.19056,-0.646029,-0.236734,-0.700208,-0.508208,0.0251014,0.0264104,-0.770314,-0.113058,0.0809988,33.71,96.137,0.024999,-0.735027,0.036205,0.0467486,-0.0194069,-0.00271022,0.00165501,0.0903043,-0.111501,0.769506,-10.5144,0.269007,0.988559,0.0903043,-0.111501,10.5633
2263.28,58.0489,84.2295,22.8301,0.19056,-0.646029,-0.236734,-0.700208,-0.508208,0.0251014,0.0264104,-0.770314,-0.113058,0.0809988,33.71,96.137,0.024999,-0.735027,0.036205,0.0467486,-0.0194069,-0.00271022,0.00165501,0.0903043,-0.111501,0.769506,-10.5144,0.269007,0.988559,0.0903043,-0.111501,10.5633
2263.3,58.4102,84.2506,22.4459,0.195026,-0.644725,-0.241021,-0.698716,-0.52147,0.0262227,0.0108032,-0.781298,-0.411654,-0.0347394,33.71,96.114,0.025,-0.747065,0.0350352,0.0314371,-0.0191354,-0.00844391,0.00188109,0.173138,-0.419448,0.758405,-10.5258,-0.0370485,0.872059,0.173138,-0.419448,10.5522
2263.33,58.5624,84.3214,21.1228,0.20422,-0.641985,-0.249101,-0.695772,-0.507771,0.0218146,-0.0148943,-0.737748,-0.367467,-0.0146294,33.71,96.08,0.025001,-0.734563,0.03575,-0.00627168,-0.0184437,-0.0035489,0.00295135,0.174077,-0.362331,0.719674,-10.4834,-0.0182469,0.889325,0.174077,-0.362331,10.5134
2263.36,58.5624,84.3214,21.1228,0.20422,-0.641985,-0.249101,-0.695772,-0.507771,0.0218146,-0.0148943,-0.737748,-0.367467,-0.0146294,33.71,96.08,0.025001,-0.734563,0.03575,-0.00627168,-0.0184437,-0.0035489,0.00295135,0.174077,-0.362331,0.719674,-10.4834,-0.0182469,0.889325,0.174077,-0.362331,10.5134
2263.38,58.0755,84.395,19.2122,0.21337,-0.639028,-0.256551,-0.693035,-0.490984,0.0103698,-0.034286,-0.684934,-0.288096,0.0591428,33.71,96.069,0.025001,-0.711007,0.0226697,-0.0352804,-0.0175282,-0.00393936,0.00369776,0.191544,-0.243837,0.677855,-10.4319,0.0266797,0.962437,0.191544,-0.243837,10.4716
2263.41,58.0755,84.395,19.2122,0.21337,-0.639028,-0.256551,-0.693035,-0.490984,0.0103698,-0.034286,-0.684934,-0.288096,0.0591428,33.71,96.069,0.025001,-0.711007,0.0226697,-0.0352804,-0.0175282,-0.00393936,0.00369776,0.191544,-0.243837,0.677855,-10.4319,0.0266797,0.962437,0.191544,-0.243837,10.4716
2263.43,56.796,84.4126,16.6083,0.222046,-0.635644,-0.263242,-0.690909,-0.447203,-0.0211001,-0.0502319,-0.656933,0.0773683,0.301116,33.71,96.035,0.025001,-0.658441,-0.0224374,-0.0625164,-0.0168632,-0.00289116,0.00585385,0.144272,0.198658,0.68406,-10.4041,0.349926,1.21491,0.144272,0.198658,10.4778
2263.46,56.796,84.4126,16.6083,0.222046,-0.635644,-0.263242,-0.690909,-0.447203,-0.0211001,-0.0502319,-0.656933,0.0773683,0.301116,33.71,96.035,0.025001,-0.658441,-0.0224374,-0.0625164,-0.0168632,-0.00289116,0.00585385,0.144272,0.198658,0.68406,-10.4041,0.349926,1.21491,0.144272,0.198658,10.4778
2263.48,55.8248,84.3867,15.0146,0.226174,-0.633725,-0.266308,-0.690158,-0.431633,-0.0428994,-0.0634922,-0.666298,0.216866,0.345544,33.71,96.012,0.025,-0.630549,-0.0495126,-0.0780515,-0.0162991,-0.00361975,0.00871007,0.0821405,0.334507,0.701244,-10.4131,0.465043,1.27081,0.0821405,0.334507,10.495
2263.51,53.488,84.2751,11.4943,0.234084,-0.629547,-0.27202,-0.689116,-0.403715,-0.0668637,-0.0779502,-0.628393,-0.332701,0.200853,33.71,95.989,0.024999,-0.591269,-0.0858443,-0.0998257,-0.016912,-0.00332969,0.0041974,0.334187,-0.163793,0.638279,-10.3733,-0.138024,1.15821,0.334187,-0.163793,10.432
2263.53,53.488,84.2751,11.4943,0.234084,-0.629547,-0.27202,-0.689116,-0.403715,-0.0668637,-0.0779502,-0.628393,-0.332701,0.200853,33.71,95.989,0.024999,-0.591269,-0.0858443,-0.0998257,-0.016912,-0.00332969,0.0041974,0.334187,-0.163793,0.638279,-10.3733,-0.138024,1.15821,0.334187,-0.163793,10.432
2263.56,50.9367,84.0977,7.82868,0.241569,-0.625065,-0.277293,-0.68851,-0.397528,-0.0829146,-0.0751794,-0.678724,-0.00392857,-0.0163007,33.73,95.971,0.024999,-0.567943,-0.116848,-0.106176,-0.0167428,-0.00152203,0.00381795,-0.0531442,-0.0681322,0.67341,-10.4206,0.133255,0.981447,-0.0531442,-0.0681322,10.4672
2263.58,50.9367,84.0977,7.82868,0.241569,-0.625065,-0.277293,-0.68851,-0.397528,-0.0829146,-0.0751794,-0.678724,-0.00392857,-0.0163007,33.73,95.971,0.024999,-0.567943,-0.116848,-0.106176,-0.0167428,-0.00152203,0.00381795,-0.0531442,-0.0681322,0.67341,-10.4206,0.133255,0.981447,-0.0531442,-0.0681322,10.4672
2263.61,49.7731,83.9883,6.11403,0.245198,-0.622744,-0.279949,-0.688256,-0.391706,-0.0902673,-0.0720482,-0.707798,0.00450293,-0.0141918,33.71,95.944,0.025001,-0.56071,-0.12177,-0.100328,-0.0167897,-0.000534662,0.00402349,-0.0612009,-0.0630793,0.702478,-10.4477,0.113749,1.00569,-0.0612009,-0.0630793,10.4962
2263.63,47.8553,83.7544,3.08793,0.252305,-0.618082,-0.285438,-0.687635,-0.390679,-0.0916851,-0.0587685,-0.704033,0.211461,-0.0946039,33.705,95.917,0.025,-0.564423,-0.125621,-0.0821997,-0.0165157,-0.000294283,0.00290517,-0.267147,0.0270845,0.690817,-10.4397,0.268857,0.969323,-0.267147,0.0270845,10.4846
2263.66,47.8553,83.7544,3.08793,0.252305,-0.618082,-0.285438,-0.687635,-0.390679,-0.0916851,-0.0587685,-0.704033,0.211461,-0.0946039,33.705,95.917,0.025,-0.564423,-0.125621,-0.0821997,-0.0165157,-0.000294283,0.00290517,-0.267147,0.0270845,0.690817,-10.4397,0.268857,0.969323,-0.267147,0.0270845,10.4846
2263.68,46.5355,83.5041,0.641689,0.25921,-0.61339,-0.291274,-0.68682,-0.403067,-0.0938309,-0.0407854,-0.69824,-0.13364,-0.168441,33.71,95.899,0.025001,-0.573235,-0.131244,-0.054247,-0.0163368,0.00275879,0.00200162,-0.0748624,-0.270503,0.674533,-10.4291,-0.121232,0.939485,-0.0748624,-0.270503,10.4683
2263.71,46.5355,83.5041,0.641689,0.25921,-0.61339,-0.291274,-0.68682,-0.403067,-0.0938309,-0.0407854,-0.69824,-0.13364,-0.168441,33.71,95.899,0.025001,-0.573235,-0.131244,-0.054247,-0.0163368,0.00275879,0.00200162,-0.0748624,-0.270503,0.674533,-10.4291,-0.121232,0.939485,-0.0748624,-0.270503,10.4683
2263.73,45.7459,83.2515,-1.28992,0.265928,-0.608721,-0.297416,-0.685773,-0.407243,-0.084165,-0.029434,-0.674173,-0.119632,-0.209691,33.71,95.876,0.025001,-0.579166,-0.12586,-0.037701,-0.0167015,-0.00334795,-0.00278215,-0.109654,-0.290699,0.645184,-10.4001,-0.14554,0.9409,-0.109654,-0.290699,10.4389
2263.76,45.7459,83.2515,-1.28992,0.265928,-0.608721,-0.297416,-0.685773,-0.407243,-0.084165,-0.029434,-0.674173,-0.119632,-0.209691,33.71,95.876,0.025001,-0.579166,-0.12586,-0.037701,-0.0167015,-0.00334795,-0.00278215,-0.109654,-0.290699,0.645184,-10.4001,-0.14554,0.9409,-0.109654,-0.290699,10.4389
2263.78,45.4839,83.1284,-2.12806,0.26925,-0.606402,-0.300557,-0.685161,-0.402958,-0.0896863,-0.0214981,-0.604502,0.0519929,0.250344,33.71,95.865,0.024999,-0.581323,-0.120338,-0.0284079,-0.0151548,-0.000412696,0.00403587,0.0784093,0.167111,0.62986,-10.3279,0.00848141,1.4213,0.0784093,0.167111,10.4236
2263.81,45.3288,82.8806,-3.44016,0.275677,-0.601785,-0.307065,-0.68379,-0.409704,-0.0848538,-0.00210602,-0.633135,0.123486,-0.20598,33.71,95.831,0.024999,-0.585035,-0.120189,-0.00157212,-0.0149254,0.00137842,0.000600122,-0.282642,-0.128155,0.601852,-10.3514,0.0506499,1.00565,-0.282642,-0.128155,10.3956
2263.83,45.3288,82.8806,-3.44016,0.275677,-0.601785,-0.307065,-0.68379,-0.409704,-0.0848538,-0.00210602,-0.633135,0.123486,-0.20598,33.71,95.831,0.024999,-0.585035,-0.120189,-0.00157212,-0.0149254,0.00137842,0.000600122,-0.282642,-0.128155,0.601852,-10.3514,0.0506499,1.00565,-0.282642,-0.128155,10.3956
2263.86,45.5386,82.6395,-4.43464,0.282137,-0.597105,-0.314004,-0.682104,-0.428504,-0.0914676,0.00740977,-0.561,-0.228562,0.134573,33.71,95.808,0.025,-0.61039,-0.12581,0.012571,-0.014378,-0.0017308,0.0029347,0.210353,-0.0961386,0.575831,-10.274,-0.325577,1.38551,0.210353,-0.0961386,10.3696
2263.89,45.5386,82.6395,-4.43464,0.282137,-0.597105,-0.314004,-0.682104,-0.428504,-0.0914676,0.00740977,-0.561,-0.228562,0.134573,33.71,95.808,0.025,-0.61039,-0.12581,0.012571,-0.014378,-0.0017308,0.0029347,0.210353,-0.0961386,0.575831,-10.274,-0.325577,1.38551,0.210353,-0.0961386,10.3696
2263.91,45.9632,82.3581,-5.20853,0.288287,-0.592177,-0.321102,-0.680522,-0.420935,-0.107149,0.0172944,-0.524585,-0.216541,0.248638,33.71,95.785,0.024999,-0.608636,-0.144064,0.0268265,-0.0138943,-1.28E-05,0.00453955,0.274443,0.00607051,0.555468,-10.2313,-0.334773,1.54565,0.274443,0.00607051,10.3492
2263.94,46.2645,82.2013,-5.51359,0.291287,-0.589592,-0.324771,-0.679747,-0.424427,-0.113986,0.0195927,-0.527454,-0.174476,0.0487521,33.71,95.785,0.025001,-0.607017,-0.158338,0.0320049,-0.0137493,-0.000920856,0.00260937,0.117338,-0.121799,0.531435,-10.2306,-0.302163,1.37154,0.117338,-0.121799,10.3252
2263.96,46.2645,82.2013,-5.51359,0.291287,-0.589592,-0.324771,-0.679747,-0.424427,-0.113986,0.0195927,-0.527454,-0.174476,0.0487521,33.71,95.785,0.025001,-0.607017,-0.158338,0.0320049,-0.0137493,-0.000920856,0.00260937,0.117338,-0.121799,0.531435,-10.2306,-0.302163,1.37154,0.117338,-0.121799,10.3252
2263.99,46.9023,81.8741,-6.06682,0.297068,-0.584356,-0.332025,-0.678261,-0.409985,-0.123017,0.0178836,-0.532173,-0.110991,0.251405,33.71,95.762,0.025,-0.590663,-0.166858,0.0335604,-0.0135164,-0.000881541,0.00510724,0.186823,0.0770106,0.563825,-10.2276,-0.257299,1.62799,0.186823,0.0770106,10.3576
2264.01,46.9023,81.8741,-6.06682,0.297068,-0.584356,-0.332025,-0.678261,-0.409985,-0.123017,0.0178836,-0.532173,-0.110991,0.251405,33.71,95.762,0.025,-0.590663,-0.166858,0.0335604,-0.0135164,-0.000881541,0.00510724,0.186823,0.0770106,0.563825,-10.2276,-0.257299,1.62799,0.186823,0.0770106,10.3576
2264.04,47.4726,81.537,-6.64038,0.302563,-0.579106,-0.338964,-0.676901,-0.390101,-0.12032,0.0128721,-0.539521,-0.0436316,-0.0911468,33.71,95.74,0.025001,-0.567821,-0.166974,0.0269576,-0.0129999,-0.00148749,0.00148645,-0.0711223,-0.157251,0.521065,-10.2266,-0.210307,1.34055,-0.0711223,-0.157251,10.3148
2264.06,47.4726,81.537,-6.64038,0.302563,-0.579106,-0.338964,-0.676901,-0.390101,-0.12032,0.0128721,-0.539521,-0.0436316,-0.0911468,33.71,95.74,0.025001,-0.567821,-0.166974,0.0269576,-0.0129999,-0.00148749,0.00148645,-0.0711223,-0.157251,0.521065,-10.2266,-0.210307,1.34055,-0.0711223,-0.157251,10.3148
2264.09,47.9469,81.2026,-7.28261,0.307952,-0.573857,-0.345639,-0.675564,-0.374714,-0.12436,0.00686061,-0.477723,0.0595871,0.3066,33.71,95.706,0.025,-0.55299,-0.171651,0.0174966,-0.0128209,-0.00140184,0.0039566,0.0746277,0.228994,0.517461,-10.1562,-0.130288,1.79238,0.0746277,0.228994,10.3112
2264.11,48.119,81.015,-7.64995,0.310535,-0.571117,-0.348847,-0.675055,-0.377081,-0.134835,-0.00295977,-0.539438,-0.164752,-0.125007,33.71,95.706,0.024999,-0.540852,-0.188201,0.00804936,-0.0125938,-0.00511621,0.00372814,0.0104855,-0.257824,0.516895,-10.213,-0.368366,1.39093,0.0104855,-0.257824,10.3106
2264.14,48.119,81.015,-7.64995,0.310535,-0.571117,-0.348847,-0.675055,-0.377081,-0.134835,-0.00295977,-0.539438,-0.164752,-0.125007,33.71,95.706,0.024999,-0.540852,-0.188201,0.00804936,-0.0125938,-0.00511621,0.00372814,0.0104855,-0.257824,0.516895,-10.213,-0.368366,1.39093,0.0104855,-0.257824,10.3106
2264.16,48.3872,80.6304,-8.42584,0.31553,-0.565613,-0.354998,-0.674166,-0.352206,-0.13482,-0.00669671,-0.53645,-0.157956,-0.00735225,33.71,95.683,0.024999,-0.518335,-0.194361,-0.000309712,-0.0130482,-1.41E-05,0.00113389,0.0700274,-0.158069,0.531877,-10.1995,-0.391591,1.56989,0.0700274,-0.158069,10.3256
2264.19,48.3872,80.6304,-8.42584,0.31553,-0.565613,-0.354998,-0.674166,-0.352206,-0.13482,-0.00669671,-0.53645,-0.157956,-0.00735225,33.71,95.683,0.024999,-0.518335,-0.194361,-0.000309712,-0.0130482,-1.41E-05,0.00113389,0.0700274,-0.158069,0.531877,-10.1995,-0.391591,1.56989,0.0700274,-0.158069,10.3256
2264.21,48.4815,80.2336,-9.31778,0.320314,-0.560091,-0.360662,-0.673513,-0.342772,-0.135309,-0.0243916,-0.484259,-0.30276,0.0724651,33.71,95.66,0.024999,-0.492916,-0.19334,-0.022168,-0.0131835,-0.00322553,-0.00051721,0.239198,-0.162832,0.497687,-10.1361,-0.571747,1.71188,0.239198,-0.162832,10.2914
2264.24,48.3769,80.0401,-9.91035,0.322841,-0.557301,-0.363282,-0.673213,-0.342687,-0.127064,-0.042624,-0.537854,-0.440802,0.0373776,33.71,95.66,0.025001,-0.493081,-0.185533,-0.0447423,-0.0133445,-0.00791249,-0.000889104,0.331717,-0.270726,0.549238,-10.184,-0.732338,1.70602,0.331717,-0.270726,10.343
2264.26,48.3769,80.0401,-9.91035,0.322841,-0.557301,-0.363282,-0.673213,-0.342687,-0.127064,-0.042624,-0.537854,-0.440802,0.0373776,33.71,95.66,0.025001,-0.493081,-0.185533,-0.0447423,-0.0133445,-0.00791249,-0.000889104,0.331717,-0.270726,0.549238,-10.184,-0.732338,1.70602,0.331717,-0.270726,10.343
2264.29,47.8464,79.6766,-11.4181,0.328314,-0.551708,-0.368083,-0.672565,-0.34725,-0.110435,-0.0650734,-0.514669,0.0820324,-0.0537721,33.71,95.626,0.025001,-0.499575,-0.160406,-0.0820174,-0.0131636,-0.00356614,-0.000491784,-0.15914,-0.0718422,0.493981,-10.1499,-0.265417,1.66657,-0.15914,-0.0718422,10.2877
2264.31,47.8464,79.6766,-11.4181,0.328314,-0.551708,-0.368083,-0.672565,-0.34725,-0.110435,-0.0650734,-0.514669,0.0820324,-0.0537721,33.71,95.626,0.025001,-0.499575,-0.160406,-0.0820174,-0.0131636,-0.00356614,-0.000491784,-0.15914,-0.0718422,0.493981,-10.1499,-0.265417,1.66657,-0.15914,-0.0718422,10.2877
2264.34,47.2046,79.356,-13.0408,0.334069,-0.546284,-0.3726,-0.67167,-0.355574,-0.0929792,-0.0632394,-0.492563,-0.259407,0.113275,33.71,95.592,0.024999,-0.501302,-0.134539,-0.0861314,-0.0132571,-0.00087067,-0.00147643,0.217639,-0.0992914,0.515283,-10.1178,-0.667592,1.87559,0.217639,-0.0992914,10.309
2264.36,47.2046,79.356,-13.0408,0.334069,-0.546284,-0.3726,-0.67167,-0.355574,-0.0929792,-0.0632394,-0.492563,-0.259407,0.113275,33.71,95.592,0.024999,-0.501302,-0.134539,-0.0861314,-0.0132571,-0.00087067,-0.00147643,0.217639,-0.0992914,0.515283,-10.1178,-0.667592,1.87559,0.217639,-0.0992914,10.309
2264.39,46.5637,79.0815,-14.6989,0.340178,-0.540991,-0.377111,-0.670369,-0.368344,-0.0718653,-0.0608721,-0.527841,-0.0612635,-0.15734,33.7,95.577,0.025,-0.524745,-0.10957,-0.0823294,-0.0130352,0.000442781,-0.00293625,-0.0889712,-0.238219,0.492403,-10.1443,-0.531968,1.63702,-0.0889712,-0.238219,10.2861
2264.42,46.2566,78.9679,-15.5317,0.343378,-0.538429,-0.379392,-0.669513,-0.37625,-0.0651143,-0.0611145,-0.418861,-0.171723,0.243564,33.7025,95.57,0.024999,-0.534755,-0.0922732,-0.0796249,-0.0118194,-0.00145843,0.00146802,0.207458,0.0717982,0.464826,-10.0316,-0.673562,2.04925,0.207458,0.0717982,10.2586
2264.44,46.2566,78.9679,-15.5317,0.343378,-0.538429,-0.379392,-0.669513,-0.37625,-0.0651143,-0.0611145,-0.418861,-0.171723,0.243564,33.7025,95.57,0.024999,-0.534755,-0.0922732,-0.0796249,-0.0118194,-0.00145843,0.00146802,0.207458,0.0717982,0.464826,-10.0316,-0.673562,2.04925,0.207458,0.0717982,10.2586
2264.47,45.5937,78.7749,-17.2802,0.350117,-0.533366,-0.383944,-0.667477,-0.389822,-0.0449193,-0.0617358,-0.481693,-0.109421,-0.0722512,33.7025,95.543,0.024999,-0.553947,-0.0664612,-0.0844041,-0.0111918,-0.0043935,0.002268,-0.000682469,-0.180684,0.465375,-10.0881,-0.675733,1.74818,-0.000682469,-0.180684,10.2591
2264.49,45.5937,78.7749,-17.2802,0.350117,-0.533366,-0.383944,-0.667477,-0.389822,-0.0449193,-0.0617358,-0.481693,-0.109421,-0.0722512,33.7025,95.543,0.024999,-0.553947,-0.0664612,-0.0844041,-0.0111918,-0.0043935,0.002268,-0.000682469,-0.180684,0.465375,-10.0881,-0.675733,1.74818,-0.000682469,-0.180684,10.2591
2264.52,44.8826,78.6285,-19.0913,0.357096,-0.528507,-0.388365,-0.665083,-0.393857,-0.0212524,-0.0578717,-0.46994,-0.201422,-0.195918,33.71,95.535,0.024999,-0.562253,-0.0379595,-0.0801043,-0.0116716,-0.00196327,-0.00183779,0.0310372,-0.328164,0.4372,-10.0714,-0.833016,1.62891,0.0310372,-0.328164,10.2309
2264.54,44.2877,78.5815,-20.8543,0.364494,-0.524063,-0.393064,-0.661818,-0.43502,0.0114919,-0.0299236,-0.450423,-0.100011,-0.189755,33.7025,95.497,0.024999,-0.607543,0.0106235,-0.0471987,-0.011405,0.000331549,-0.000359924,-0.0508472,-0.274523,0.41345,-10.0503,-0.79025,1.62214,-0.0508472,-0.274523,10.2072
2264.57,44.2877,78.5815,-20.8543,0.364494,-0.524063,-0.393064,-0.661818,-0.43502,0.0114919,-0.0299236,-0.450423,-0.100011,-0.189755,33.7025,95.497,0.024999,-0.607543,0.0106235,-0.0471987,-0.011405,0.000331549,-0.000359924,-0.0508472,-0.274523,0.41345,-10.0503,-0.79025,1.62214,-0.0508472,-0.274523,10.2072
2264.59,44.1052,78.6001,-21.6614,0.368344,-0.52199,-0.395678,-0.659764,-0.445807,0.026184,-0.0127945,-0.431967,-0.0956113,-0.0525842,33.71,95.501,0.025001,-0.631462,0.0329798,-0.0201303,-0.0111912,0.00265845,-0.000771772,0.00448581,-0.146432,0.420761,-10.0325,-0.810155,1.74651,0.00448581,-0.146432,10.2145
2264.62,44.1052,78.6001,-21.6614,0.368344,-0.52199,-0.395678,-0.659764,-0.445807,0.026184,-0.0127945,-0.431967,-0.0956113,-0.0525842,33.71,95.501,0.025001,-0.631462,0.0329798,-0.0201303,-0.0111912,0.00265845,-0.000771772,0.00448581,-0.146432,0.420761,-10.0325,-0.810155,1.74651,0.00448581,-0.146432,10.2145
2264.64,43.8725,78.7274,-23.2294,0.37647,-0.518126,-0.401356,-0.654774,-0.481801,0.0599195,0.0134527,-0.436357,0.16598,0.0173776,33.71,95.49,0.025,-0.691869,0.0814885,0.0175547,-0.0109131,-0.000636802,-0.000509406,-0.20694,0.0221354,0.418264,-10.0412,-0.589107,1.77663,-0.20694,0.0221354,10.212
2264.67,43.8725,78.7274,-23.2294,0.37647,-0.518126,-0.401356,-0.654774,-0.481801,0.0599195,0.0134527,-0.436357,0.16598,0.0173776,33.71,95.49,0.025,-0.691869,0.0814885,0.0175547,-0.0109131,-0.000636802,-0.000509406,-0.20694,0.0221354,0.418264,-10.0412,-0.589107,1.77663,-0.20694,0.0221354,10.212
2264.69,43.7165,78.9504,-24.7753,0.384871,-0.514651,-0.407274,-0.64895,-0.494328,0.0845254,0.0306117,-0.402882,-0.240975,0.0551477,33.7,95.452,0.025,-0.702561,0.119663,0.0444897,-0.010704,-0.000183029,-0.000980249,0.186581,-0.0923406,0.424364,-10.0151,-1.02757,1.75943,0.186581,-0.0923406,10.2181
2264.72,43.6515,79.2319,-26.2638,0.393335,-0.511384,-0.413393,-0.642557,-0.493131,0.0942121,0.0441397,-0.367642,-0.0644781,-0.0362137,33.71,95.433,0.025001,-0.715031,0.136008,0.0667559,-0.00999602,4.90E-05,-0.000676096,-0.00152833,-0.103519,0.360432,-9.98894,-0.874176,1.6047,-0.00152833,-0.103519,10.1542
2264.74,43.6515,79.2319,-26.2638,0.393335,-0.511384,-0.413393,-0.642557,-0.493131,0.0942121,0.0441397,-0.367642,-0.0644781,-0.0362137,33.71,95.433,0.025001,-0.715031,0.136008,0.0667559,-0.00999602,4.90E-05,-0.000676096,-0.00152833,-0.103519,0.360432,-9.98894,-0.874176,1.6047,-0.00152833,-0.103519,10.1542
2264.77,43.6806,79.3846,-26.9464,0.397472,-0.509812,-0.416509,-0.63924,-0.496728,0.0913155,0.0568609,-0.344848,-0.0698604,0.0511398,33.7025,95.418,0.024999,-0.714455,0.136074,0.0799985,-0.00954162,0.00176895,0.000888038,0.0359704,-0.0197163,0.353176,-9.97098,-0.887427,1.65942,0.0359704,-0.0197163,10.1469
2264.79,43.6806,79.3846,-26.9464,0.397472,-0.509812,-0.416509,-0.63924,-0.496728,0.0913155,0.0568609,-0.344848,-0.0698604,0.0511398,33.7025,95.418,0.024999,-0.714455,0.136074,0.0799985,-0.00954162,0.00176895,0.000888038,0.0359704,-0.0197163,0.353176,-9.97098,-0.887427,1.65942,0.0359704,-0.0197163,10.1469
2264.82,43.9331,79.6673,-28.0701,0.405168,-0.506662,-0.422741,-0.63279,-0.466385,0.0649447,0.0609159,-0.31288,-0.329815,0.209949,33.7,95.395,0.024999,-0.67678,0.105154,0.0921939,-0.00787398,-0.00231994,0.00740885,0.334155,0.0550091,0.368871,-9.9478,-1.15641,1.75997,0.334155,0.0550091,10.1626
2264.84,44.3706,79.8887,-28.9513,0.412197,-0.503272,-0.428916,-0.626772,-0.450128,0.0426067,0.062625,-0.321282,0.116503,0.244166,33.7025,95.395,0.024999,-0.657141,0.0725957,0.0938044,-0.00755118,-0.00033682,0.00749871,-0.0835934,0.226178,0.3439,-9.96292,-0.715806,1.7487,-0.0835934,0.226178,10.1376
2264.87,44.3706,79.8887,-28.9513,0.412197,-0.503272,-0.428916,-0.626772,-0.450128,0.0426067,0.062625,-0.321282,0.116503,0.244166,33.7025,95.395,0.024999,-0.657141,0.0725957,0.0938044,-0.00755118,-0.00033682,0.00749871,-0.0835934,0.226178,0.3439,-9.96292,-0.715806,1.7487,-0.0835934,0.226178,10.1376
2264.89,44.6658,79.9772,-29.2953,0.415469,-0.501491,-0.43199,-0.62392,-0.43726,0.0315729,0.0607822,-0.351361,0.034754,0.158725,33.71,95.388,0.025001,-0.637945,0.0535285,0.0946061,-0.00825044,-0.00193976,0.0045085,-0.0343572,0.117858,0.367131,-9.99564,-0.799283,1.64525,-0.0343572,0.117858,10.1609
2264.92,44.6658,79.9772,-29.2953,0.415469,-0.501491,-0.43199,-0.62392,-0.43726,0.0315729,0.0607822,-0.351361,0.034754,0.158725,33.71,95.388,0.025001,-0.637945,0.0535285,0.0946061,-0.00825044,-0.00193976,0.0045085,-0.0343572,0.117858,0.367131,-9.99564,-0.799283,1.64525,-0.0343572,0.117858,10.1609
2264.95,45.3178,80.1138,-29.8719,0.421595,-0.497812,-0.437971,-0.618565,-0.417408,0.0157141,0.0558424,-0.298347,0.074936,0.207534,33.705,95.373,0.024999,-0.606856,0.0268826,0.0872335,-0.00792468,0.000118294,0.002924,-0.0569052,0.181867,0.318407,-9.94666,-0.76256,1.66564,-0.0569052,0.181867,10.1122
2264.97,45.3178,80.1138,-29.8719,0.421595,-0.497812,-0.437971,-0.618565,-0.417408,0.0157141,0.0558424,-0.298347,0.074936,0.207534,33.705,95.373,0.024999,-0.606856,0.0268826,0.0872335,-0.00792468,0.000118294,0.002924,-0.0569052,0.181867,0.318407,-9.94666,-0.76256,1.66564,-0.0569052,0.181867,10.1122
2265,46.0187,80.1916,-30.3338,0.427202,-0.493946,-0.443699,-0.613716,-0.390637,-0.00681957,0.0441897,-0.283605,-0.0465933,0.182371,33.71,95.354,0.025001,-0.570814,-0.0024846,0.0746801,-0.00739814,-0.00262562,0.00335282,0.0529213,0.12956,0.310282,-9.93419,-0.889202,1.62237,0.0529213,0.12956,10.104
2265.02,46.7732,80.1977,-30.6838,0.432316,-0.489792,-0.449225,-0.609429,-0.366196,-0.0323278,0.0329648,-0.26941,-0.0388044,0.232514,33.71,95.331,0.025,-0.542106,-0.0373011,0.0587979,-0.00673658,-0.00196218,0.0049662,0.0547629,0.182779,0.302891,-9.92018,-0.889666,1.66645,0.0547629,0.182779,10.0966
2265.05,46.7732,80.1977,-30.6838,0.432316,-0.489792,-0.449225,-0.609429,-0.366196,-0.0323278,0.0329648,-0.26941,-0.0388044,0.232514,33.71,95.331,0.025,-0.542106,-0.0373011,0.0587979,-0.00673658,-0.00196218,0.0049662,0.0547629,0.182779,0.302891,-9.92018,-0.889666,1.66645,0.0547629,0.182779,10.0966
2265.07,47.1588,80.1697,-30.8095,0.434594,-0.487657,-0.451824,-0.607597,-0.343883,-0.0439319,0.0264346,-0.266787,-0.0992966,0.0523872,33.71,95.331,0.025,-0.508972,-0.0563949,0.0485947,-0.00683101,-0.00144155,0.00364032,0.0761069,-0.0038925,0.279235,-9.91674,-0.955721,1.48851,0.0761069,-0.0038925,10.073
2265.1,47.1588,80.1697,-30.8095,0.434594,-0.487657,-0.451824,-0.607597,-0.343883,-0.0439319,0.0264346,-0.266787,-0.0992966,0.0523872,33.71,95.331,0.025,-0.508972,-0.0563949,0.0485947,-0.00683101,-0.00144155,0.00364032,0.0761069,-0.0038925,0.279235,-9.91674,-0.955721,1.48851,0.0761069,-0.0038925,10.073
2265.12,47.856,80.0609,-31.1015,0.438958,-0.483135,-0.456807,-0.604337,-0.335147,-0.0632908,0.00852171,-0.277869,-0.0973176,0.172725,33.71,95.32,0.024999,-0.488652,-0.0826244,0.0232163,-0.00691396,-0.00226966,0.00254361,0.094422,0.113121,0.307903,-9.92463,-0.970515,1.62016,0.094422,0.113121,10.1016
2265.15,47.856,80.0609,-31.1015,0.438958,-0.483135,-0.456807,-0.604337,-0.335147,-0.0632908,0.00852171,-0.277869,-0.0973176,0.172725,33.71,95.32,0.024999,-0.488652,-0.0826244,0.0232163,-0.00691396,-0.00226966,0.00254361,0.094422,0.113121,0.307903,-9.92463,-0.970515,1.62016,0.094422,0.113121,10.1016
2265.17,48.5328,79.8739,-31.3523,0.442884,-0.478312,-0.461526,-0.601718,-0.30322,-0.088469,-0.00573,-0.254322,0.0403262,0.228544,33.71,95.286,0.024999,-0.452732,-0.118951,0.00295242,-0.00648002,-0.00184356,0.00496057,-0.0309679,0.196536,0.280986,-9.89551,-0.855571,1.69901,-0.0309679,0.196536,10.0747
2265.2,49.2005,79.6186,-31.5422,0.446323,-0.473294,-0.465961,-0.599723,-0.285502,-0.103336,-0.0151579,-0.283568,-0.0397546,-0.0069036,33.71,95.263,0.025,-0.419369,-0.14409,-0.0128238,-0.0068201,-0.000768603,0.0023896,0.00457797,-0.0520758,0.281614,-9.91699,-0.962985,1.49719,0.00457797,-0.0520758,10.0754
2265.22,49.2005,79.6186,-31.5422,0.446323,-0.473294,-0.465961,-0.599723,-0.285502,-0.103336,-0.0151579,-0.283568,-0.0397546,-0.0069036,33.71,95.263,0.025,-0.419369,-0.14409,-0.0128238,-0.0068201,-0.000768603,0.0023896,0.00457797,-0.0520758,0.281614,-9.91699,-0.962985,1.49719,0.00457797,-0.0520758,10.0754
2265.25,49.5105,79.4753,-31.6458,0.447954,-0.470731,-0.468093,-0.598864,-0.278094,-0.105433,-0.0221661,-0.238628,0.0477127,0.172758,33.7,95.248,0.025001,-0.411837,-0.149995,-0.0206788,-0.00660696,-0.00112036,0.00168157,-0.0502207,0.143329,0.256905,-9.86761,-0.890872,1.69568,-0.0502207,0.143329,10.0507
2265.27,49.5105,79.4753,-31.6458,0.447954,-0.470731,-0.468093,-0.598864,-0.278094,-0.105433,-0.0221661,-0.238628,0.0477127,0.172758,33.7,95.248,0.025001,-0.411837,-0.149995,-0.0206788,-0.00660696,-0.00112036,0.00168157,-0.0502207,0.143329,0.256905,-9.86761,-0.890872,1.69568,-0.0502207,0.143329,10.0507
2265.3,50.0083,79.1536,-31.9378,0.451082,-0.465488,-0.472073,-0.597489,-0.263702,-0.118408,-0.0393889,-0.257093,-0.0186619,0.110046,33.71,95.24,0.025,-0.38858,-0.163144,-0.0447886,-0.0062198,-0.000378383,0.00286375,0.0016182,0.0678679,0.271931,-9.87588,-0.993581,1.67402,0.0016182,0.0678679,10.0657
2265.32,50.4104,78.7752,-32.2801,0.453976,-0.460021,-0.475767,-0.596601,-0.249685,-0.132686,-0.0557355,-0.238562,-0.0861863,0.0860193,33.7,95.225,0.025001,-0.365771,-0.185004,-0.068649,-0.00620838,-0.00255124,0.00327811,0.0653881,0.0368175,0.257115,-9.84496,-1.10434,1.69782,0.0653881,0.0368175,10.0509
2265.35,50.4104,78.7752,-32.2801,0.453976,-0.460021,-0.475767,-0.596601,-0.249685,-0.132686,-0.0557355,-0.238562,-0.0861863,0.0860193,33.7,95.225,0.025001,-0.365771,-0.185004,-0.068649,-0.00620838,-0.00255124,0.00327811,0.0653881,0.0368175,0.257115,-9.84496,-1.10434,1.69782,0.0653881,0.0368175,10.0509
2265.37,50.7184,78.3371,-32.678,0.456674,-0.45428,-0.479202,-0.596191,-0.239957,-0.145634,-0.0705377,-0.268386,-0.00827754,0.0842573,33.7,95.214,0.025001,-0.349613,-0.20433,-0.0909233,-0.00633713,-0.0013998,0.0030803,-0.0174241,0.0395457,0.278086,-9.85993,-1.07723,1.75072,-0.0174241,0.0395457,10.0718
2265.4,50.7184,78.3371,-32.678,0.456674,-0.45428,-0.479202,-0.596191,-0.239957,-0.145634,-0.0705377,-0.268386,-0.00827754,0.0842573,33.7,95.214,0.025001,-0.349613,-0.20433,-0.0909233,-0.00633713,-0.0013998,0.0030803,-0.0174241,0.0395457,0.278086,-9.85993,-1.07723,1.75072,-0.0174241,0.0395457,10.0718
2265.42,50.834,78.1016,-32.9051,0.457987,-0.451328,-0.480827,-0.596117,-0.234488,-0.148773,-0.0796832,-0.238152,-0.0961559,0.0454468,33.7075,95.202,0.025,-0.343648,-0.209321,-0.101548,-0.00603781,-0.00313255,0.00180107,0.068301,-0.00488575,0.251672,-9.82148,-1.19311,1.74075,0.068301,-0.00488575,10.0454
2265.45,50.834,78.1016,-32.9051,0.457987,-0.451328,-0.480827,-0.596117,-0.234488,-0.148773,-0.0796832,-0.238152,-0.0961559,0.0454468,33.7075,95.202,0.025,-0.343648,-0.209321,-0.101548,-0.00603781,-0.00313255,0.00180107,0.068301,-0.00488575,0.251672,-9.82148,-1.19311,1.74075,0.068301,-0.00488575,10.0454
2265.48,50.9624,77.6057,-33.4529,0.460654,-0.445261,-0.48389,-0.596147,-0.235984,-0.150234,-0.092658,-0.258228,-0.111622,0.0382601,33.7075,95.195,0.024999,-0.339364,-0.213902,-0.123042,-0.00619117,-0.00320375,0.000995928,0.0785349,-0.0175269,0.272269,-9.82372,-1.27041,1.79213,0.0785349,-0.0175269,10.066
2265.5,51.0097,77.0917,-34.0671,0.463325,-0.439094,-0.486743,-0.596329,-0.227826,-0.152551,-0.097087,-0.275433,-0.0917107,-0.0754306,33.7,95.18,0.024999,-0.331776,-0.217036,-0.131633,-0.00641264,0.000615549,0.000977809,0.046362,-0.130629,0.26599,-9.82168,-1.31726,1.73694,0.046362,-0.130629,10.0597
2265.53,51.0097,77.0917,-34.0671,0.463325,-0.439094,-0.486743,-0.596329,-0.227826,-0.152551,-0.097087,-0.275433,-0.0917107,-0.0754306,33.7,95.18,0.024999,-0.331776,-0.217036,-0.131633,-0.00641264,0.000615549,0.000977809,0.046362,-0.130629,0.26599,-9.82168,-1.31726,1.73694,0.046362,-0.130629,10.0597
2265.55,51.0098,76.8331,-34.3911,0.464657,-0.436013,-0.48809,-0.596452,-0.22612,-0.147354,-0.103584,-0.2407,-0.150428,0.00426558,33.7,95.168,0.025001,-0.327652,-0.211835,-0.139521,-0.00643417,-0.00337568,-0.000538729,0.114325,-0.052234,0.254529,-9.77698,-1.41053,1.84521,0.114325,-0.052234,10.0483
2265.58,51.0098,76.8331,-34.3911,0.464657,-0.436013,-0.48809,-0.596452,-0.22612,-0.147354,-0.103584,-0.2407,-0.150428,0.00426558,33.7,95.168,0.025001,-0.327652,-0.211835,-0.139521,-0.00643417,-0.00337568,-0.000538729,0.114325,-0.052234,0.254529,-9.77698,-1.41053,1.84521,0.114325,-0.052234,10.0483
2265.6,51.0069,76.314,-35.031,0.467272,-0.429869,-0.490688,-0.596737,-0.223836,-0.147731,-0.107537,-0.23688,-0.13667,0.00296461,33.7,95.157,0.025001,-0.322533,-0.210906,-0.143625,-0.00598175,-0.00373555,0.000683882,0.0998375,-0.0518311,0.24929,-9.75255,-1.4668,1.9004,0.0998375,-0.0518311,10.043
2265.63,51.0124,75.8009,-35.6603,0.469879,-0.423751,-0.493226,-0.596973,-0.22028,-0.144358,-0.0987506,-0.218369,-0.0423087,0.11323,33.705,95.138,0.025001,-0.319907,-0.20584,-0.140079,-0.00639268,0.00114479,-0.000220152,0.0128667,0.0661783,0.240314,-9.71291,-1.44282,2.06509,0.0128667,0.0661783,10.0341
2265.65,51.0124,75.8009,-35.6603,0.469879,-0.423751,-0.493226,-0.596973,-0.22028,-0.144358,-0.0987506,-0.218369,-0.0423087,0.11323,33.705,95.138,0.025001,-0.319907,-0.20584,-0.140079,-0.00639268,0.00114479,-0.000220152,0.0128667,0.0661783,0.240314,-9.71291,-1.44282,2.06509,0.0128667,0.0661783,10.0341
2265.68,51.027,75.3028,-36.2866,0.472531,-0.417685,-0.495735,-0.597078,-0.228388,-0.138279,-0.100655,-0.251533,-0.0861412,-0.0504186,33.7,95.123,0.025001,-0.325763,-0.196812,-0.13885,-0.00568789,-0.00213143,0.00100844,0.0433327,-0.104278,0.245926,-9.72483,-1.5567,1.95249,0.0433327,-0.104278,10.0397
2265.7,51.027,75.3028,-36.2866,0.472531,-0.417685,-0.495735,-0.597078,-0.228388,-0.138279,-0.100655,-0.251533,-0.0861412,-0.0504186,33.7,95.123,0.025001,-0.325763,-0.196812,-0.13885,-0.00568789,-0.00213143,0.00100844,0.0433327,-0.104278,0.245926,-9.72483,-1.5567,1.95249,0.0433327,-0.104278,10.0397
2265.73,51.0248,75.0555,-36.6102,0.473881,-0.41465,-0.496954,-0.597109,-0.224281,-0.14042,-0.10165,-0.251023,0.179214,-0.0175343,33.7,95.112,0.025,-0.324828,-0.196948,-0.140891,-0.00519493,0.000132482,0.00298039,-0.217928,-0.0572692,0.211341,-9.71351,-1.32699,2.00982,-0.217928,-0.0572692,10.0051
2265.75,51.0248,75.0555,-36.6102,0.473881,-0.41465,-0.496954,-0.597109,-0.224281,-0.14042,-0.10165,-0.251023,0.179214,-0.0175343,33.7,95.112,0.025,-0.324828,-0.196948,-0.140891,-0.00519493,0.000132482,0.00298039,-0.217928,-0.0572692,0.211341,-9.71351,-1.32699,2.00982,-0.217928,-0.0572692,10.0051
2265.78,51.0514,74.5893,-37.237,0.476628,-0.40871,-0.499432,-0.596951,-0.232796,-0.125115,-0.094072,-0.247378,-0.0440609,-0.0480875,33.7075,95.104,0.024999,-0.33252,-0.182059,-0.12838,-0.00573121,9.08E-05,-0.000749267,0.00154361,-0.100182,0.235395,-9.689,-1.61891,2.02392,0.00154361,-0.100182,10.0291
2265.8,51.0383,74.1584,-37.9182,0.479567,-0.402914,-0.501832,-0.596523,-0.236852,-0.111501,-0.0903335,-0.182566,-0.0417087,0.120369,33.7,95.089,0.024999,-0.340745,-0.162577,-0.124569,-0.00537049,-0.00136042,-0.000140188,0.00967654,0.0772765,0.208551,-9.60435,-1.68466,2.22946,0.00967654,0.0772765,10.0023
2265.83,51.0383,74.1584,-37.9182,0.479567,-0.402914,-0.501832,-0.596523,-0.236852,-0.111501,-0.0903335,-0.182566,-0.0417087,0.120369,33.7,95.089,0.024999,-0.340745,-0.162577,-0.124569,-0.00537049,-0.00136042,-0.000140188,0.00967654,0.0772765,0.208551,-9.60435,-1.68466,2.22946,0.00967654,0.0772765,10.0023
2265.85,51.0311,73.7665,-38.6231,0.482706,-0.39723,-0.504285,-0.595734,-0.248416,-0.102996,-0.0796736,-0.219829,0.16146,-0.0146815,33.7,95.089,0.024999,-0.359699,-0.146442,-0.112776,-0.00496496,0.000842346,0.000359246,-0.197379,-0.0580069,0.179684,-9.62311,-1.5475,2.12432,-0.197379,-0.0580069,9.97343
2265.88,51.0311,73.7665,-38.6231,0.482706,-0.39723,-0.504285,-0.595734,-0.248416,-0.102996,-0.0796736,-0.219829,0.16146,-0.0146815,33.7,95.089,0.024999,-0.359699,-0.146442,-0.112776,-0.00496496,0.000842346,0.000359246,-0.197379,-0.0580069,0.179684,-9.62311,-1.5475,2.12432,-0.197379,-0.0580069,9.97343
2265.9,51.0289,73.5882,-38.9853,0.484354,-0.39445,-0.50553,-0.595188,-0.25504,-0.0924787,-0.0757051,-0.240599,0.0589794,-0.0503499,33.7,95.077,0.025001,-0.363399,-0.136506,-0.10551,-0.00534118,-0.000183851,-0.00122343,-0.0997668,-0.1008,0.209254,-9.63531,-1.68187,2.10055,-0.0997668,-0.1008,10.003
2265.93,51.0301,73.2674,-39.7174,0.487755,-0.389058,-0.508036,-0.593825,-0.26205,-0.0812503,-0.0655447,-0.190133,0.0459779,-0.0139707,33.705,95.059,0.025001,-0.372127,-0.118116,-0.0915385,-0.00469231,0.000168882,0.000454416,-0.07915,-0.0558077,0.17053,-9.5692,-1.7558,2.15493,-0.07915,-0.0558077,9.96428
2265.95,51.0301,73.2674,-39.7174,0.487755,-0.389058,-0.508036,-0.593825,-0.26205,-0.0812503,-0.0655447,-0.190133,0.0459779,-0.0139707,33.705,95.059,0.025001,-0.372127,-0.118116,-0.0915385,-0.00469231,0.000168882,0.000454416,-0.07915,-0.0558077,0.17053,-9.5692,-1.7558,2.15493,-0.07915,-0.0558077,9.96428
2265.98,51.0236,72.9883,-40.4744,0.491307,-0.383849,-0.510537,-0.59214,-0.263855,-0.0688636,-0.060845,-0.192645,0.0827678,-0.0196336,33.7,95.043,0.025,-0.379713,-0.0992994,-0.0810683,-0.0045108,0.000216818,-0.000383945,-0.115788,-0.0632707,0.164128,-9.55787,-1.77714,2.16001,-0.115788,-0.0632707,9.95787
2266.01,51.0236,72.9883,-40.4744,0.491307,-0.383849,-0.510537,-0.59214,-0.263855,-0.0688636,-0.060845,-0.192645,0.0827678,-0.0196336,33.7,95.043,0.025,-0.379713,-0.0992994,-0.0810683,-0.0045108,0.000216818,-0.000383945,-0.115788,-0.0632707,0.164128,-9.55787,-1.77714,2.16001,-0.115788,-0.0632707,9.95787
2266.03,51.0008,72.7469,-41.2715,0.495054,-0.378765,-0.513043,-0.590124,-0.277154,-0.0569645,-0.0544221,-0.149365,0.00204816,0.0416696,33.7,95.032,0.025001,-0.396108,-0.0830141,-0.0726037,-0.00414818,4.21E-05,-6.22E-05,-0.0324261,0.00607917,0.151532,-9.50243,-1.91401,2.22487,-0.0324261,0.00607917,9.94528
2266.06,51.0008,72.7469,-41.2715,0.495054,-0.378765,-0.513043,-0.590124,-0.277154,-0.0569645,-0.0544221,-0.149365,0.00204816,0.0416696,33.7,95.032,0.025001,-0.396108,-0.0830141,-0.0726037,-0.00414818,4.21E-05,-6.22E-05,-0.0324261,0.00607917,0.151532,-9.50243,-1.91401,2.22487,-0.0324261,0.00607917,9.94528
2266.08,50.9834,72.6382,-41.683,0.496986,-0.376265,-0.514291,-0.589012,-0.277301,-0.0524381,-0.051316,-0.153582,-0.0106864,0.0354133,33.7075,95.047,0.024999,-0.398228,-0.0760834,-0.0690366,-0.00401876,0.000355233,0.000140238,-0.0207869,-0.000923768,0.156598,-9.50112,-1.95418,2.21804,-0.0207869,-0.000923768,9.95034
2266.11,50.9408,72.443,-42.5177,0.500904,-0.371382,-0.516755,-0.58663,-0.275841,-0.0435109,-0.0467172,-0.155921,-0.05685,-0.00316165,33.7,95.021,0.025,-0.399356,-0.0630171,-0.0614469,-0.00377457,-0.000125385,0.000362955,0.0262405,-0.0375537,0.159545,-9.49345,-2.05344,2.17438,0.0262405,-0.0375537,9.95329
2266.13,50.9408,72.443,-42.5177,0.500904,-0.371382,-0.516755,-0.58663,-0.275841,-0.0435109,-0.0467172,-0.155921,-0.05685,-0.00316165,33.7,95.021,0.025,-0.399356,-0.0630171,-0.0614469,-0.00377457,-0.000125385,0.000362955,0.0262405,-0.0375537,0.159545,-9.49345,-2.05344,2.17438,0.0262405,-0.0375537,9.95329
2266.16,50.8793,72.2727,-43.3682,0.504861,-0.366662,-0.519134,-0.584101,-0.278479,-0.0344467,-0.0426876,-0.132598,0.0798332,0.00608507,33.7,95.009,0.025,-0.401698,-0.0508379,-0.0566158,-0.00385088,5.66E-05,0.000284276,-0.104029,-0.0293113,0.110957,-9.4613,-1.96791,2.17392,-0.104029,-0.0293113,9.9047
2266.18,50.8793,72.2727,-43.3682,0.504861,-0.366662,-0.519134,-0.584101,-0.278479,-0.0344467,-0.0426876,-0.132598,0.0798332,0.00608507,33.7,95.009,0.025,-0.401698,-0.0508379,-0.0566158,-0.00385088,5.66E-05,0.000284276,-0.104029,-0.0293113,0.110957,-9.4613,-1.96791,2.17392,-0.104029,-0.0293113,9.9047
2266.21,50.8374,72.1953,-43.808,0.506883,-0.364331,-0.520299,-0.58277,-0.280334,-0.0321517,-0.0430503,-0.13241,0.0157031,0.0236746,33.7,95.009,0.025001,-0.403244,-0.0453806,-0.0558577,-0.0032511,-0.000369811,0.000618582,-0.0433256,-0.009298,0.127968,-9.45708,-2.05734,2.18481,-0.0433256,-0.009298,9.92171
2266.23,50.7551,72.0535,-44.682,0.510907,-0.359765,-0.522592,-0.580035,-0.27647,-0.0285974,-0.040829,-0.131118,-0.0327012,0.0321891,33.7,94.987,0.025,-0.400163,-0.0389025,-0.0508231,-0.00333475,-0.000333019,0.000771373,0.0025324,0.00212518,0.138876,-9.44834,-2.15469,2.17787,0.0025324,0.00212518,9.93262
2266.26,50.7551,72.0535,-44.682,0.510907,-0.359765,-0.522592,-0.580035,-0.27647,-0.0285974,-0.040829,-0.131118,-0.0327012,0.0321891,33.7,94.987,0.025,-0.400163,-0.0389025,-0.0508231,-0.00333475,-0.000333019,0.000771373,0.0025324,0.00212518,0.138876,-9.44834,-2.15469,2.17787,0.0025324,0.00212518,9.93262
2266.28,50.6583,71.9227,-45.5737,0.514975,-0.355242,-0.52483,-0.577198,-0.280475,-0.0241789,-0.0382705,-0.0913333,-0.0234773,0.0272928,33.7,94.975,0.025,-0.404084,-0.0314319,-0.049403,-0.00285793,6.71E-06,0.000901809,0.00128683,0.00639251,0.0979557,-9.40165,-2.19379,2.15457,0.00128683,0.00639251,9.8917
2266.31,50.6583,71.9227,-45.5737,0.514975,-0.355242,-0.52483,-0.577198,-0.280475,-0.0241789,-0.0382705,-0.0913333,-0.0234773,0.0272928,33.7,94.975,0.025,-0.404084,-0.0314319,-0.049403,-0.00285793,6.71E-06,0.000901809,0.00128683,0.00639251,0.0979557,-9.40165,-2.19379,2.15457,0.00128683,0.00639251,9.8917
2266.33,50.544,71.8063,-46.4716,0.519022,-0.350853,-0.526966,-0.574305,-0.272748,-0.0159129,-0.0379412,-0.112338,-0.0444758,0.0444418,33.7,94.987,0.025001,-0.395386,-0.024719,-0.0471199,-0.00287466,-0.000587608,0.0016156,0.0144279,0.020033,0.126346,-9.41646,-2.26156,2.15047,0.0144279,0.020033,9.92009
2266.36,50.544,71.8063,-46.4716,0.519022,-0.350853,-0.526966,-0.574305,-0.272748,-0.0159129,-0.0379412,-0.112338,-0.0444758,0.0444418,33.7,94.987,0.025001,-0.395386,-0.024719,-0.0471199,-0.00287466,-0.000587608,0.0016156,0.0144279,0.020033,0.126346,-9.41646,-2.26156,2.15047,0.0144279,0.020033,9.92009
2266.38,50.4802,71.7519,-46.9245,0.521043,-0.348691,-0.528,-0.572839,-0.272882,-0.0160058,-0.0378082,-0.0953218,-0.00432267,0.102422,33.7,94.964,0.025,-0.395579,-0.0214053,-0.0469253,-0.00261385,-0.000959946,0.00188683,-0.0302467,0.0762638,0.11342,-9.39653,-2.24444,2.19689,-0.0302467,0.0762638,9.90717
2266.41,50.3336,71.6448,-47.8389,0.525063,-0.344418,-0.529973,-0.569925,-0.267895,-0.0113465,-0.038726,-0.109899,-0.0523208,0.0109532,33.7,94.964,0.024999,-0.388447,-0.0150161,-0.0494281,-0.00254163,-0.000950293,0.000676518,0.0266434,-0.0101675,0.118836,-9.40536,-2.33846,2.08107,0.0266434,-0.0101675,9.91258
2266.43,50.3336,71.6448,-47.8389,0.525063,-0.344418,-0.529973,-0.569925,-0.267895,-0.0113465,-0.038726,-0.109899,-0.0523208,0.0109532,33.7,94.964,0.024999,-0.388447,-0.0150161,-0.0494281,-0.00254163,-0.000950293,0.000676518,0.0266434,-0.0101675,0.118836,-9.40536,-2.33846,2.08107,0.0266434,-0.0101675,9.91258
2266.46,50.1586,71.553,-48.7777,0.529118,-0.340256,-0.53185,-0.566917,-0.27342,-0.0038862,-0.0339525,-0.0924608,0.000477488,0.0240804,33.7,94.953,0.025,-0.393125,-0.005979,-0.0439945,-0.00258725,-0.000284835,0.00117313,-0.0234667,0.00063788,0.0926174,-9.38297,-2.33046,2.06627,-0.0234667,0.00063788,9.88636
2266.48,50.1586,71.553,-48.7777,0.529118,-0.340256,-0.53185,-0.566917,-0.27342,-0.0038862,-0.0339525,-0.0924608,0.000477488,0.0240804,33.7,94.953,0.025,-0.393125,-0.005979,-0.0439945,-0.00258725,-0.000284835,0.00117313,-0.0234667,0.00063788,0.0926174,-9.38297,-2.33046,2.06627,-0.0234667,0.00063788,9.88636
2266.51,49.9884,71.4788,-49.7254,0.533232,-0.336138,-0.533754,-0.56372,-0.274236,-0.00101199,-0.0295339,-0.114876,0.0440768,0.0119077,33.7,94.953,0.025,-0.396159,-0.00130547,-0.0368296,-0.00262008,0.000481459,0.000755309,-0.0680523,-0.0226203,0.100689,-9.40137,-2.32951,2.02304,-0.0680523,-0.0226203,9.89444
2266.53,49.9071,71.4478,-50.1974,0.53529,-0.334108,-0.534712,-0.562067,-0.27461,0.0013146,-0.0275065,-0.120797,0.0327667,-0.00926437,33.7,94.941,0.025,-0.398289,0.00156825,-0.0334193,-0.00223609,0.00067617,0.000193025,-0.0543446,-0.0430349,0.104624,-9.4056,-2.36116,1.98546,-0.0543446,-0.0430349,9.89837
2266.56,49.9071,71.4478,-50.1974,0.53529,-0.334108,-0.534712,-0.562067,-0.27461,0.0013146,-0.0275065,-0.120797,0.0327667,-0.00926437,33.7,94.941,0.025,-0.398289,0.00156825,-0.0334193,-0.00223609,0.00067617,0.000193025,-0.0543446,-0.0430349,0.104624,-9.4056,-2.36116,1.98546,-0.0543446,-0.0430349,9.89837
2266.59,49.7452,71.3944,-51.1329,0.539357,-0.330135,-0.536588,-0.558729,-0.272402,0.0012883,-0.0256661,-0.0661993,0.0108235,0.0224092,33.7,94.941,0.025001,-0.392338,0.00465318,-0.0290626,-0.001974,0.000118442,0.000734779,-0.0286966,0.00362006,0.0645374,-9.3481,-2.42209,1.98322,-0.0286966,0.00362006,9.85828
2266.61,49.7452,71.3944,-51.1329,0.539357,-0.330135,-0.536588,-0.558729,-0.272402,0.0012883,-0.0256661,-0.0661993,0.0108235,0.0224092,33.7,94.941,0.025001,-0.392338,0.00465318,-0.0290626,-0.001974,0.000118442,0.000734779,-0.0286966,0.00362006,0.0645374,-9.3481,-2.42209,1.98322,-0.0286966,0.00362006,9.85828
2266.64,49.5833,71.3434,-52.0424,0.54328,-0.326291,-0.538362,-0.555471,-0.24959,0.0030123,-0.0289589,-0.07263,-0.00772747,0.0644786,33.7,94.93,0.025001,-0.373049,0.00520218,-0.0312938,-0.00186311,-0.000478902,0.00169932,-0.0220469,0.0451934,0.0834495,-9.35174,-2.47797,1.99151,-0.0220469,0.0451934,9.8772
2266.66,49.5833,71.3434,-52.0424,0.54328,-0.326291,-0.538362,-0.555471,-0.24959,0.0030123,-0.0289589,-0.07263,-0.00772747,0.0644786,33.7,94.93,0.025001,-0.373049,0.00520218,-0.0312938,-0.00186311,-0.000478902,0.00169932,-0.0220469,0.0451934,0.0834495,-9.35174,-2.47797,1.99151,-0.0220469,0.0451934,9.8772
2266.69,49.4344,71.2751,-52.8594,0.546767,-0.322697,-0.539891,-0.552657,-0.229941,-0.00594164,-0.0288673,-0.0565294,-0.0223653,0.0743836,33.7,94.907,0.025001,-0.334555,-0.00413137,-0.0342661,-0.00166116,0.0010051,0.00219463,-0.00794675,0.0611315,0.0736783,-9.3319,-2.52865,1.97266,-0.00794675,0.0611315,9.86742
2266.71,49.3766,71.2366,-53.2447,0.548437,-0.320898,-0.540657,-0.551299,-0.230655,-0.00383266,-0.0303019,-0.118874,-0.021332,-0.129209,33.7,94.907,0.024999,-0.333792,-0.00684535,-0.0353508,-0.00168737,-8.60E-05,-0.00017175,0.0262378,-0.148018,0.0931833,-9.39213,-2.54533,1.75591,0.0262378,-0.148018,9.88693
2266.74,49.3766,71.2366,-53.2447,0.548437,-0.320898,-0.540657,-0.551299,-0.230655,-0.00383266,-0.0303019,-0.118874,-0.021332,-0.129209,33.7,94.907,0.024999,-0.333792,-0.00684535,-0.0353508,-0.00168737,-8.60E-05,-0.00017175,0.0262378,-0.148018,0.0931833,-9.39213,-2.54533,1.75591,0.0262378,-0.148018,9.88693
2266.76,49.2813,71.1484,-53.9992,0.551744,-0.317199,-0.542211,-0.548608,-0.230388,-0.0124905,-0.0328546,-0.0464172,-0.0908239,0.124223,33.7,94.907,0.025,-0.334015,-0.0145152,-0.039565,-0.00141984,-0.00113015,0.00105226,0.0449486,0.124441,0.0912624,-9.31482,-2.65096,1.98432,0.0449486,0.124441,9.88501
2266.79,49.2813,71.1484,-53.9992,0.551744,-0.317199,-0.542211,-0.548608,-0.230388,-0.0124905,-0.0328546,-0.0464172,-0.0908239,0.124223,33.7,94.907,0.025,-0.334015,-0.0145152,-0.039565,-0.00141984,-0.00113015,0.00105226,0.0449486,0.124441,0.0912624,-9.31482,-2.65096,1.98432,0.0449486,0.124441,9.88501
2266.81,49.1993,71.0305,-54.7227,0.554912,-0.313376,-0.543684,-0.546146,-0.220434,-0.0222447,-0.0438419,-0.014498,-0.03112,0.184724,33.7025,94.9,0.024999,-0.322902,-0.0229933,-0.051508,-0.0010288,-0.00021096,0.00313226,-0.0220059,0.177787,0.0566483,-9.27636,-2.63011,2.02336,-0.0220059,0.177787,9.85039
2266.84,49.1993,71.0305,-54.7227,0.554912,-0.313376,-0.543684,-0.546146,-0.220434,-0.0222447,-0.0438419,-0.014498,-0.03112,0.184724,33.7025,94.9,0.024999,-0.322902,-0.0229933,-0.051508,-0.0010288,-0.00021096,0.00313226,-0.0220059,0.177787,0.0566483,-9.27636,-2.63011,2.02336,-0.0220059,0.177787,9.85039
2266.86,49.122,70.8801,-55.4129,0.557911,-0.309464,-0.545023,-0.543982,-0.210502,-0.0261156,-0.0521545,-0.0760792,0.012053,-0.0309878,33.7,94.873,0.024999,-0.307704,-0.0332421,-0.0669057,-0.000860785,-0.000384921,0.00280912,-0.0192055,-0.0507151,0.0628704,-9.32956,-2.6289,1.79001,-0.0192055,-0.0507151,9.85662
2266.89,49.0823,70.7952,-55.7483,0.559355,-0.307493,-0.54564,-0.542999,-0.206144,-0.0278761,-0.0563206,-0.0327504,-0.0581159,0.149808,33.7,94.885,0.025001,-0.301194,-0.0357629,-0.0709071,-0.00103989,-0.000543565,0.00216201,0.00595451,0.145986,0.0744648,-9.28146,-2.72101,1.96303,0.00595451,0.145986,9.86821
2266.91,49.0823,70.7952,-55.7483,0.559355,-0.307493,-0.54564,-0.542999,-0.206144,-0.0278761,-0.0563206,-0.0327504,-0.0581159,0.149808,33.7,94.885,0.025001,-0.301194,-0.0357629,-0.0709071,-0.00103989,-0.000543565,0.00216201,0.00595451,0.145986,0.0744648,-9.28146,-2.72101,1.96303,0.00595451,0.145986,9.86821
2266.94,49.0057,70.5938,-56.3993,0.562141,-0.303415,-0.546772,-0.541274,-0.197789,-0.0368061,-0.0682208,-0.0493327,-0.0285725,0.0919043,33.7,94.873,0.025001,-0.289807,-0.0469791,-0.0887779,-0.000855646,-0.000780323,0.00269008,-0.0104024,0.0806191,0.0713362,-9.28666,-2.73896,1.89273,-0.0104024,0.0806191,9.86508
2266.96,49.0057,70.5938,-56.3993,0.562141,-0.303415,-0.546772,-0.541274,-0.197789,-0.0368061,-0.0682208,-0.0493327,-0.0285725,0.0919043,33.7,94.873,0.025001,-0.289807,-0.0469791,-0.0887779,-0.000855646,-0.000780323,0.00269008,-0.0104024,0.0806191,0.0713362,-9.28666,-2.73896,1.89273,-0.0104024,0.0806191,9.86508
2266.99,48.9439,70.3522,-57.0076,0.564745,-0.299195,-0.547779,-0.539892,-0.185404,-0.0444742,-0.0810022,-0.0420476,-0.0136555,0.0842057,33.7,94.873,0.025001,-0.273657,-0.0593432,-0.105436,-0.000947487,-0.00115599,0.00207624,-0.0214892,0.0715392,0.0588678,-9.26557,-2.77566,1.87735,-0.0214892,0.0715392,9.85261
2267.01,48.9195,70.2148,-57.2899,0.565955,-0.297045,-0.548223,-0.539361,-0.178808,-0.050513,-0.0861333,-0.0391019,-0.0711532,0.0748045,33.7,94.85,0.025,-0.262525,-0.066423,-0.113368,-0.00104078,-0.000589794,0.00276398,0.0348552,0.0772535,0.0707423,-9.25471,-2.86055,1.86626,0.0348552,0.0772535,9.86449
2267.04,48.9195,70.2148,-57.2899,0.565955,-0.297045,-0.548223,-0.539361,-0.178808,-0.050513,-0.0861333,-0.0391019,-0.0711532,0.0748045,33.7,94.85,0.025,-0.262525,-0.066423,-0.113368,-0.00104078,-0.000589794,0.00276398,0.0348552,0.0772535,0.0707423,-9.25471,-2.86055,1.86626,0.0348552,0.0772535,9.86449
2267.06,48.8746,69.9084,-57.8232,0.568226,-0.292661,-0.548982,-0.538598,-0.167616,-0.0576468,-0.0982398,-0.0396539,-0.0226399,0.118779,33.695,94.862,0.024999,-0.24521,-0.0775064,-0.131581,-0.000670187,-0.000765353,0.00292703,-0.024701,0.106237,0.0655527,-9.2374,-2.87027,1.91042,-0.024701,0.106237,9.8593
2267.09,48.8746,69.9084,-57.8232,0.568226,-0.292661,-0.548982,-0.538598,-0.167616,-0.0576468,-0.0982398,-0.0396539,-0.0226399,0.118779,33.695,94.862,0.024999,-0.24521,-0.0775064,-0.131581,-0.000670187,-0.000765353,0.00292703,-0.024701,0.106237,0.0655527,-9.2374,-2.87027,1.91042,-0.024701,0.106237,9.8593
2267.11,48.8481,69.5612,-58.3099,0.570312,-0.288133,-0.549618,-0.538185,-0.15534,-0.0649267,-0.111139,-0.034668,-0.0139371,0.106744,33.7,94.862,0.024999,-0.230343,-0.090022,-0.148676,-0.00109657,-0.00114567,0.00240314,-0.0289543,0.0937688,0.0562086,-9.21186,-2.92406,1.90338,-0.0289543,0.0937688,9.84995
2267.14,48.8481,69.5612,-58.3099,0.570312,-0.288133,-0.549618,-0.538185,-0.15534,-0.0649267,-0.111139,-0.034668,-0.0139371,0.106744,33.7,94.862,0.024999,-0.230343,-0.090022,-0.148676,-0.00109657,-0.00114567,0.00240314,-0.0289543,0.0937688,0.0562086,-9.21186,-2.92406,1.90338,-0.0289543,0.0937688,9.84995
2267.17,48.8444,69.1741,-58.7416,0.572184,-0.283485,-0.550135,-0.538139,-0.142078,-0.0736588,-0.120525,-0.0309066,-0.0349888,0.105364,33.7,94.85,0.024999,-0.211892,-0.102252,-0.163403,-0.000781959,-0.000933199,0.0026972,-0.00934897,0.0985771,0.058959,-9.18478,-3.01149,1.91215,-0.00934897,0.0985771,9.85271
2267.19,48.8428,68.9655,-58.9424,0.573045,-0.28113,-0.550323,-0.538266,-0.137668,-0.0770166,-0.127103,-0.0325115,-0.0270187,0.122208,33.7,94.839,0.025,-0.202522,-0.10643,-0.172636,-0.000760851,-0.00139303,0.00268123,-0.0230609,0.11151,0.0612822,-9.17365,-3.03837,1.93573,-0.0230609,0.11151,9.85503
2267.22,48.8428,68.9655,-58.9424,0.573045,-0.28113,-0.550323,-0.538266,-0.137668,-0.0770166,-0.127103,-0.0325115,-0.0270187,0.122208,33.7,94.839,0.025,-0.202522,-0.10643,-0.172636,-0.000760851,-0.00139303,0.00268123,-0.0230609,0.11151,0.0612822,-9.17365,-3.03837,1.93573,-0.0230609,0.11151,9.85503
2267.24,48.8599,68.5179,-59.3052,0.574623,-0.276298,-0.550631,-0.538771,-0.127648,-0.0867066,-0.138317,-0.0251479,-0.0433321,0.0620593,33.7,94.839,0.025001,-0.189138,-0.119668,-0.188217,-0.000727231,-0.000885831,0.00243584,0.0126154,0.0619331,0.0486475,-9.13854,-3.12742,1.89287,0.0126154,0.0619331,9.84239
2267.27,48.8599,68.5179,-59.3052,0.574623,-0.276298,-0.550631,-0.538771,-0.127648,-0.0867066,-0.138317,-0.0251479,-0.0433321,0.0620593,33.7,94.839,0.025001,-0.189138,-0.119668,-0.188217,-0.000727231,-0.000885831,0.00243584,0.0126154,0.0619331,0.0486475,-9.13854,-3.12742,1.89287,0.0126154,0.0619331,9.84239
2267.29,48.8825,68.0299,-59.6305,0.57602,-0.271344,-0.550781,-0.539642,-0.114484,-0.0934804,-0.149975,-0.0322241,-0.0327713,0.0856436,33.7,94.839,0.025001,-0.171492,-0.129188,-0.205149,-0.000863128,-0.000411742,0.00247646,-0.00746405,0.0786191,0.0566613,-9.11474,-3.19406,1.9381,-0.00746405,0.0786191,9.85041
2267.32,48.9216,67.5021,-59.8982,0.577166,-0.266313,-0.550781,-0.540922,-0.0992346,-0.102236,-0.163026,-0.0583391,0.00125815,0.11358,33.69,94.824,0.025001,-0.149604,-0.141017,-0.222448,-0.00110486,-0.000381402,0.00251363,-0.0552938,0.0870685,0.0752801,-9.10672,-3.2409,1.99313,-0.0552938,0.0870685,9.86903
2267.34,48.9216,67.5021,-59.8982,0.577166,-0.266313,-0.550781,-0.540922,-0.0992346,-0.102236,-0.163026,-0.0583391,0.00125815,0.11358,33.69,94.824,0.025001,-0.149604,-0.141017,-0.222448,-0.00110486,-0.000381402,0.00251363,-0.0552938,0.0870685,0.0752801,-9.10672,-3.2409,1.99313,-0.0552938,0.0870685,9.86903
2267.37,48.9443,67.2254,-60.014,0.577654,-0.263781,-0.550722,-0.541702,-0.0939759,-0.103525,-0.167863,-0.0425839,-0.0670216,0.0935907,33.7,94.828,0.024999,-0.139785,-0.145174,-0.228847,-0.000798412,-0.00103269,0.0020889,0.0167856,0.0916945,0.0798428,-9.07276,-3.35079,1.9884,0.0167856,0.0916945,9.87359
2267.39,48.9443,67.2254,-60.014,0.577654,-0.263781,-0.550722,-0.541702,-0.0939759,-0.103525,-0.167863,-0.0425839,-0.0670216,0.0935907,33.7,94.828,0.024999,-0.139785,-0.145174,-0.228847,-0.000798412,-0.00103269,0.0020889,0.0167856,0.0916945,0.0798428,-9.07276,-3.35079,1.9884,0.0167856,0.0916945,9.87359
2267.42,49.0004,66.6397,-60.2207,0.578515,-0.258561,-0.550527,-0.543495,-0.0867911,-0.111569,-0.17889,-0.0395408,0.0144674,0.0995146,33.695,94.812,0.024999,-0.129787,-0.157441,-0.245326,-0.000933415,-3.83E-05,0.00245344,-0.0586911,0.0750908,0.0509183,-9.03049,-3.35606,2.02822,-0.0586911,0.0750908,9.84466
2267.44,49.0004,66.6397,-60.2207,0.578515,-0.258561,-0.550527,-0.543495,-0.0867911,-0.111569,-0.17889,-0.0395408,0.0144674,0.0995146,33.695,94.812,0.024999,-0.129787,-0.157441,-0.245326,-0.000933415,-3.83E-05,0.00245344,-0.0586911,0.0750908,0.0509183,-9.03049,-3.35606,2.02822,-0.0586911,0.0750908,9.84466
2267.47,49.0666,66.015,-60.3958,0.579221,-0.253174,-0.550216,-0.545589,-0.0810557,-0.121164,-0.190483,-0.0544647,-0.019011,0.119483,33.695,94.828,0.024999,-0.118871,-0.168157,-0.262678,-0.00112303,-0.000676484,0.00260791,-0.0406655,0.097335,0.0804745,-9.00254,-3.48044,2.08618,-0.0406655,0.097335,9.87422
2267.49,49.1462,65.3495,-60.543,0.579788,-0.247572,-0.549814,-0.547959,-0.0721011,-0.128652,-0.201287,-0.0508322,-0.031598,0.0853657,33.685,94.805,0.024999,-0.110516,-0.180766,-0.279111,-0.00113511,-0.000585032,0.00243859,-0.0170215,0.0701943,0.0751843,-8.95206,-3.58833,2.09415,-0.0170215,0.0701943,9.86893
2267.52,49.1462,65.3495,-60.543,0.579788,-0.247572,-0.549814,-0.547959,-0.0721011,-0.128652,-0.201287,-0.0508322,-0.031598,0.0853657,33.685,94.805,0.024999,-0.110516,-0.180766,-0.279111,-0.00113511,-0.000585032,0.00243859,-0.0170215,0.0701943,0.0751843,-8.95206,-3.58833,2.09415,-0.0170215,0.0701943,9.86893
2267.54,49.1892,65.0019,-60.6054,0.58001,-0.244704,-0.549568,-0.549256,-0.0692881,-0.133886,-0.207755,-0.0397871,-0.0320605,0.129225,33.7,94.816,0.025,-0.104123,-0.186303,-0.287424,-0.00117903,-0.000385447,0.00303069,-0.030178,0.113243,0.0746675,-8.91607,-3.63797,2.1606,-0.030178,0.113243,9.86841
2267.57,49.1892,65.0019,-60.6054,0.58001,-0.244704,-0.549568,-0.549256,-0.0692881,-0.133886,-0.207755,-0.0397871,-0.0320605,0.129225,33.7,94.816,0.025,-0.104123,-0.186303,-0.287424,-0.00117903,-0.000385447,0.00303069,-0.030178,0.113243,0.0746675,-8.91607,-3.63797,2.1606,-0.030178,0.113243,9.86841
2267.59,49.2859,64.2724,-60.7125,0.580357,-0.238765,-0.549013,-0.552053,-0.0667143,-0.142739,-0.22136,-0.0461944,-0.0399339,0.151915,33.7,94.805,0.025001,-0.0992021,-0.200219,-0.306467,-0.00121514,-0.00104606,0.0030732,-0.0345654,0.133011,0.088994,-8.86907,-3.7479,2.23167,-0.0345654,0.133011,9.88274
2267.62,49.3394,63.8909,-60.7633,0.580509,-0.235664,-0.548716,-0.553519,-0.0690378,-0.148349,-0.226783,-0.0348125,-0.0520848,0.0956317,33.695,94.801,0.024999,-0.108179,-0.215073,-0.324692,-0.00114853,-0.00143735,0.00328523,-0.0449567,0.126473,0.0716128,-8.79888,-3.83881,2.27741,-0.0449567,0.126473,9.86536
2267.64,49.3986,63.4977,-60.8159,0.580666,-0.232446,-0.548422,-0.555004,-0.0751557,-0.154142,-0.234276,-0.0342933,-0.0232873,0.146379,33.69,94.805,0.024999,-0.108179,-0.215073,-0.324692,-0.00114853,-0.00143735,0.00328523,-0.0449567,0.126473,0.0716128,-8.79888,-3.83881,2.27741,-0.0449567,0.126473,9.86536
2267.67,49.4626,63.0929,-60.8717,0.580834,-0.229106,-0.548129,-0.556504,-0.0803537,-0.159486,-0.239967,-0.0570605,-0.0428678,0.156613,33.68,94.801,0.025,-0.115361,-0.222847,-0.333588,-0.00130556,-0.00132584,0.00344117,-0.039008,0.132772,0.102329,-8.79055,-3.91446,2.31402,-0.039008,0.132772,9.89607
2267.69,49.4626,63.0929,-60.8717,0.580834,-0.229106,-0.548129,-0.556504,-0.0803537,-0.159486,-0.239967,-0.0570605,-0.0428678,0.156613,33.68,94.801,0.025,-0.115361,-0.222847,-0.333588,-0.00130556,-0.00132584,0.00344117,-0.039008,0.132772,0.102329,-8.79055,-3.91446,2.31402,-0.039008,0.132772,9.89607
2267.72,49.6058,62.2493,-61.002,0.581243,-0.222023,-0.54757,-0.559491,-0.0940372,-0.169764,-0.250606,-0.0505368,-0.00547382,0.141148,33.685,94.805,0.024999,-0.135416,-0.237382,-0.351055,-0.00129915,-0.00103011,0.00290484,-0.0652626,0.109708,0.0788142,-8.71782,-3.99401,2.35185,-0.0652626,0.109708,9.87256
2267.75,49.6058,62.2493,-61.002,0.581243,-0.222023,-0.54757,-0.559491,-0.0940372,-0.169764,-0.250606,-0.0505368,-0.00547382,0.141148,33.685,94.805,0.024999,-0.135416,-0.237382,-0.351055,-0.00129915,-0.00103011,0.00290484,-0.0652626,0.109708,0.0788142,-8.71782,-3.99401,2.35185,-0.0652626,0.109708,9.87256
2267.77,49.76,61.3639,-61.1555,0.581719,-0.214478,-0.546996,-0.562492,-0.103777,-0.176075,-0.262173,-0.101673,-0.0449707,0.101022,33.685,94.79,0.024999,-0.150659,-0.249208,-0.366852,-0.00194584,-0.000644226,0.00266352,-0.032497,0.0649962,0.131471,-8.69746,-4.15626,2.36538,-0.032497,0.0649962,9.92522
2267.8,49.9249,60.4376,-61.3379,0.582285,-0.206453,-0.546409,-0.565472,-0.119234,-0.185387,-0.275048,-0.066398,0.00569325,0.07808,33.685,94.794,0.025,-0.172052,-0.260845,-0.383737,-0.00186514,-0.000444423,0.0022065,-0.057431,0.0424,0.0737666,-8.58518,-4.23417,2.39569,-0.057431,0.0424,9.86751
2267.82,49.9249,60.4376,-61.3379,0.582285,-0.206453,-0.546409,-0.565472,-0.119234,-0.185387,-0.275048,-0.066398,0.00569325,0.07808,33.685,94.794,0.025,-0.172052,-0.260845,-0.383737,-0.00186514,-0.000444423,0.0022065,-0.057431,0.0424,0.0737666,-8.58518,-4.23417,2.39569,-0.057431,0.0424,9.86751
2267.85,50.0085,59.9604,-61.4446,0.582619,-0.202262,-0.546104,-0.566935,-0.126094,-0.187759,-0.282004,-0.0733014,-0.032849,0.117041,33.68,94.79,0.025,-0.181503,-0.265044,-0.392309,-0.00175142,-0.00080559,0.00223461,-0.0431365,0.0841069,0.105906,-8.55155,-4.33919,2.46059,-0.0431365,0.0841069,9.89965
2267.87,50.0085,59.9604,-61.4446,0.582619,-0.202262,-0.546104,-0.566935,-0.126094,-0.187759,-0.282004,-0.0733014,-0.032849,0.117041,33.68,94.79,0.025,-0.181503,-0.265044,-0.392309,-0.00175142,-0.00080559,0.00223461,-0.0431365,0.0841069,0.105906,-8.55155,-4.33919,2.46059,-0.0431365,0.0841069,9.89965
2267.9,50.1786,58.973,-61.6618,0.58325,-0.193612,-0.545409,-0.569968,-0.124577,-0.195059,-0.293197,-0.0773783,0.0205383,0.0811835,33.7,94.794,0.025001,-0.183166,-0.27594,-0.410765,-0.00199664,0.000249838,0.00239529,-0.0766824,0.0348348,0.0768527,-8.46988,-4.42261,2.4774,-0.0766824,0.0348348,9.8706
2267.92,50.1786,58.973,-61.6618,0.58325,-0.193612,-0.545409,-0.569968,-0.124577,-0.195059,-0.293197,-0.0773783,0.0205383,0.0811835,33.7,94.794,0.025001,-0.183166,-0.27594,-0.410765,-0.00199664,0.000249838,0.00239529,-0.0766824,0.0348348,0.0768527,-8.46988,-4.42261,2.4774,-0.0766824,0.0348348,9.8706
2267.95,50.3522,57.9432,-61.8602,0.583707,-0.184734,-0.544558,-0.57325,-0.114745,-0.200652,-0.307258,-0.121403,0.0217262,0.0651809,33.69,94.794,0.025001,-0.172089,-0.284981,-0.429254,-0.00272239,0.000976297,0.002171,-0.0869961,0.00115613,0.109039,-8.42183,-4.56198,2.51674,-0.0869961,0.00115613,9.90279
2267.97,50.68,57.076,-62.0565,0.584474,-0.176187,-0.544753,-0.574972,-0.232022,-0.175213,-0.173618,-11.8188,1.40447,-1.80311,33.7,94.782,0.025,-0.309911,-0.244977,-0.297198,1.67887,0.0759976,-0.0397684,-4.45663,-6.91625,8.78698,-20.0396,-3.29806,0.691318,-4.45663,-6.91625,18.5807
2268,50.68,57.076,-62.0565,0.584474,-0.176187,-0.544753,-0.574972,-0.232022,-0.175213,-0.173618,-11.8188,1.40447,-1.80311,33.7,94.782,0.025,-0.309911,-0.244977,-0.297198,1.67887,0.0759976,-0.0397684,-4.45663,-6.91625,8.78698,-20.0396,-3.29806,0.691318,-4.45663,-6.91625,18.5807
2268.02,50.8164,56.96,-62.2193,0.585398,-0.17392,-0.545448,-0.574063,-0.183413,-0.0469241,-0.0291804,-1.50794,0.789729,0.920863,33.695,94.778,0.025,-0.280607,-0.118237,-0.0614023,-0.412167,0.0415002,-0.0174174,-1.57901,-0.0650949,1.11716,-9.71794,-3.93459,3.40968,-1.57901,-0.0650949,10.9109
2268.05,50.8164,56.96,-62.2193,0.585398,-0.17392,-0.545448,-0.574063,-0.183413,-0.0469241,-0.0291804,-1.50794,0.789729,0.920863,33.695,94.778,0.025,-0.280607,-0.118237,-0.0614023,-0.412167,0.0415002,-0.0174174,-1.57901,-0.0650949,1.11716,-9.71794,-3.93459,3.40968,-1.57901,-0.0650949,10.9109
2268.07,51.1074,56.8827,-62.5129,0.587235,-0.170502,-0.547185,-0.571553,-0.194427,-0.0686308,0.00798778,-0.105208,0.239936,-0.0433932,33.7,94.782,0.024999,-0.277709,-0.0939454,0.0165033,-0.00419084,0.00488639,0.000798359,-0.214785,-0.151188,-0.0391174,-8.30799,-4.5069,2.42629,-0.214785,-0.151188,9.75463
2268.1,51.466,56.8358,-62.7701,0.589001,-0.16711,-0.549251,-0.568749,-0.193669,-0.0655713,0.0227094,-0.0685537,0.3133,-0.056903,33.695,94.778,0.024999,-0.281149,-0.0942466,0.0360859,-0.00106703,0.00769744,-0.00176071,-0.254778,-0.171017,-0.109251,-8.26696,-4.45054,2.39452,-0.254778,-0.171017,9.68449
2268.12,51.466,56.8358,-62.7701,0.589001,-0.16711,-0.549251,-0.568749,-0.193669,-0.0655713,0.0227094,-0.0685537,0.3133,-0.056903,33.695,94.778,0.024999,-0.281149,-0.0942466,0.0360859,-0.00106703,0.00769744,-0.00176071,-0.254778,-0.171017,-0.109251,-8.26696,-4.45054,2.39452,-0.254778,-0.171017,9.68449
2268.15,51.8532,56.8161,-62.978,0.590572,-0.163984,-0.551428,-0.565916,-0.181365,-0.0708758,0.0336991,-0.0456509,0.31588,-0.0929893,33.685,94.778,0.024999,-0.263035,-0.10194,0.0508825,-0.000619721,0.00910262,-0.000563895,-0.230458,-0.195187,-0.138934,-8.24222,-4.45933,2.34241,-0.230458,-0.195187,9.65481
2268.17,51.8532,56.8161,-62.978,0.590572,-0.163984,-0.551428,-0.565916,-0.181365,-0.0708758,0.0336991,-0.0456509,0.31588,-0.0929893,33.685,94.778,0.024999,-0.263035,-0.10194,0.0508825,-0.000619721,0.00910262,-0.000563895,-0.230458,-0.195187,-0.138934,-8.24222,-4.45933,2.34241,-0.230458,-0.195187,9.65481
2268.2,52.0479,56.8176,-63.0729,0.591318,-0.162533,-0.552527,-0.564482,-0.17873,-0.0626859,0.0365248,-0.0269718,0.295731,-0.133308,33.68,94.767,0.025001,-0.261189,-0.0926443,0.056135,-0.000905116,0.00770522,-0.00294508,-0.187748,-0.21622,-0.154775,-8.22367,-4.48332,2.29408,-0.187748,-0.21622,9.63897
2268.22,52.0479,56.8176,-63.0729,0.591318,-0.162533,-0.552527,-0.564482,-0.17873,-0.0626859,0.0365248,-0.0269718,0.295731,-0.133308,33.68,94.767,0.025001,-0.261189,-0.0926443,0.056135,-0.000905116,0.00770522,-0.00294508,-0.187748,-0.21622,-0.154775,-8.22367,-4.48332,2.29408,-0.187748,-0.21622,9.63897
2268.25,52.4006,56.8314,-63.2914,0.5929,-0.15975,-0.554595,-0.561581,-0.177765,-0.054852,0.0328374,-0.0858233,0.294687,-0.159151,33.68,94.767,0.025001,-0.259353,-0.0795075,0.0547199,-0.00202171,0.00709894,-0.00206599,-0.191924,-0.265158,-0.111318,-8.28382,-4.49181,2.24911,-0.191924,-0.265158,9.68243
2268.28,52.6555,56.8447,-63.596,0.594754,-0.157044,-0.556289,-0.558701,-0.182215,-0.0289018,0.0208088,-0.15358,0.301566,-0.163255,33.7,94.771,0.025,-0.263922,-0.0478454,0.0389762,-0.00389511,0.00720981,-0.00435321,-0.215359,-0.302221,-0.0588536,-8.35282,-4.49596,2.21868,-0.215359,-0.302221,9.73489
2268.3,52.6555,56.8447,-63.596,0.594754,-0.157044,-0.556289,-0.558701,-0.182215,-0.0289018,0.0208088,-0.15358,0.301566,-0.163255,33.7,94.771,0.025,-0.263922,-0.0478454,0.0389762,-0.00389511,0.00720981,-0.00435321,-0.215359,-0.302221,-0.0588536,-8.35282,-4.49596,2.21868,-0.215359,-0.302221,9.73489
2268.33,52.7244,56.8597,-63.8007,0.595859,-0.155793,-0.556935,-0.557229,-0.183315,-0.0122548,0.0204317,-0.0560502,0.334852,-0.197814,33.685,94.76,0.025,-0.265756,-0.0254837,0.0366227,-0.00226395,0.00809363,-0.00463557,-0.191618,-0.300723,-0.165066,-8.25669,-4.46923,2.16602,-0.191618,-0.300723,9.62868
2268.35,52.7244,56.8597,-63.8007,0.595859,-0.155793,-0.556935,-0.557229,-0.183315,-0.0122548,0.0204317,-0.0560502,0.334852,-0.197814,33.685,94.76,0.025,-0.265756,-0.0254837,0.0366227,-0.00226395,0.00809363,-0.00463557,-0.191618,-0.300723,-0.165066,-8.25669,-4.46923,2.16602,-0.191618,-0.300723,9.62868
2268.38,52.7641,56.9091,-64.2993,0.598376,-0.153497,-0.557904,-0.554191,-0.187859,0.0107395,0.0158321,-0.0164427,0.317652,-0.125761,33.695,94.76,0.025,-0.270451,0.0106816,0.031799,-0.000806587,0.00795148,-0.00369091,-0.19764,-0.219659,-0.172272,-8.2217,-4.50044,2.1931,-0.19764,-0.219659,9.62147
2268.4,52.6746,56.9613,-64.9176,0.601285,-0.151309,-0.558404,-0.551132,-0.192433,0.0326865,0.00277568,-0.00221617,0.301576,-0.108474,33.68,94.767,0.024999,-0.276767,0.0427095,0.0148256,-0.000385964,0.00751163,-0.00253088,-0.186479,-0.195747,-0.172129,-8.21234,-4.5345,2.1551,-0.186479,-0.195747,9.62162
2268.43,52.6746,56.9613,-64.9176,0.601285,-0.151309,-0.558404,-0.551132,-0.192433,0.0326865,0.00277568,-0.00221617,0.301576,-0.108474,33.68,94.767,0.024999,-0.276767,0.0427095,0.0148256,-0.000385964,0.00751163,-0.00253088,-0.186479,-0.195747,-0.172129,-8.21234,-4.5345,2.1551,-0.186479,-0.195747,9.62162
2268.45,52.4241,57.0022,-65.6904,0.604698,-0.149139,-0.558304,-0.548083,-0.198021,0.0632428,-0.0189274,0.00903856,0.277553,-0.0569961,33.68,94.767,0.024999,-0.286897,0.0831869,-0.0121548,-0.000152412,0.00726913,-0.00224847,-0.187754,-0.141825,-0.158113,-8.2049,-4.58326,2.13873,-0.187754,-0.141825,9.63563
2268.48,52.4241,57.0022,-65.6904,0.604698,-0.149139,-0.558304,-0.548083,-0.198021,0.0632428,-0.0189274,0.00903856,0.277553,-0.0569961,33.68,94.767,0.024999,-0.286897,0.0831869,-0.0121548,-0.000152412,0.00726913,-0.00224847,-0.187754,-0.141825,-0.158113,-8.2049,-4.58326,2.13873,-0.187754,-0.141825,9.63563
2268.5,52.2235,57.0116,-66.1467,0.606625,-0.148041,-0.557959,-0.546601,-0.200884,0.0786975,-0.0274812,-0.0394544,0.363946,-0.0885952,33.685,94.767,0.025001,-0.291405,0.105235,-0.0294875,-0.000692556,0.00821059,-0.00186713,-0.254885,-0.220888,-0.167645,-8.25426,-4.51297,2.0678,-0.254885,-0.220888,9.6261
2268.53,52.2235,57.0116,-66.1467,0.606625,-0.148041,-0.557959,-0.546601,-0.200884,0.0786975,-0.0274812,-0.0394544,0.363946,-0.0885952,33.685,94.767,0.025001,-0.291405,0.105235,-0.0294875,-0.000692556,0.00821059,-0.00186713,-0.254885,-0.220888,-0.167645,-8.25426,-4.51297,2.0678,-0.254885,-0.220888,9.6261
2268.55,51.7174,57.0263,-67.1462,0.610741,-0.145966,-0.556866,-0.543681,-0.208031,0.0991218,-0.0480887,-1.33783,0.0561533,0.0358312,33.68,94.756,0.025001,-0.292912,0.138177,-0.0456882,-0.0140395,0.00674242,0.000933619,-0.513799,-0.562492,1.10174,-9.554,-4.8557,2.10601,-0.513799,-0.562492,10.8955
2268.58,51.1599,56.9488,-68.2392,0.615158,-0.143121,-0.555425,-0.540925,-0.227307,0.0831559,-0.0715903,-0.000209746,0.421805,0.144943,33.68,94.767,0.025001,-0.322177,0.123385,-0.0927761,0.000259899,0.0104793,0.00193813,-0.404406,-0.0382686,-0.184172,-8.20917,-4.53896,2.12517,-0.404406,-0.0382686,9.60957
2268.6,51.1599,56.9488,-68.2392,0.615158,-0.143121,-0.555425,-0.540925,-0.227307,0.0831559,-0.0715903,-0.000209746,0.421805,0.144943,33.68,94.767,0.025001,-0.322177,0.123385,-0.0927761,0.000259899,0.0104793,0.00193813,-0.404406,-0.0382686,-0.184172,-8.20917,-4.53896,2.12517,-0.404406,-0.0382686,9.60957
2268.63,50.7938,56.7727,-69.2039,0.619143,-0.139236,-0.55446,-0.538376,-0.227817,0.00720546,-0.0976211,-0.237332,0.45548,0.160888,33.68,94.778,0.025001,-0.332698,0.0248753,-0.123262,-0.00300569,0.00675533,0.0122165,-0.519007,-0.142451,-0.003495,-8.42983,-4.56148,2.06626,-0.519007,-0.142451,9.79025
2268.65,50.7938,56.7727,-69.2039,0.619143,-0.139236,-0.55446,-0.538376,-0.227817,0.00720546,-0.0976211,-0.237332,0.45548,0.160888,33.68,94.778,0.025001,-0.332698,0.0248753,-0.123262,-0.00300569,0.00675533,0.0122165,-0.519007,-0.142451,-0.003495,-8.42983,-4.56148,2.06626,-0.519007,-0.142451,9.79025
