Timestamp,Yaw,Pitch,Roll,Qtn[0], Qtn[1], Qtn[2], Qtn[3],Rate X,Rate Y,Rate Z,Accel X,Accel Y,Accel Z,Temp,Pres,dTime,dTheta X,dTheta Y,dTheta Z,dVel X,dVel Y,dVel Z,AccelNed X,AccelNed Y,AccelNed Z,LinearAccel X,LinearAccel Y,LinearAccel Z,LinearAccelNed X,LinearAccelNed Y,LinearAccelNed Z
2590.97,-7.3782,89.4415,164.338,-0.708632,-0.0503812,0.701872,-0.0517591,0.000264541,-0.000698666,0.000231136,9.76469,-0.0233864,0.076326,32.8,99.289,0.025,0.00339076,-0.00591477,0.0413862,0.24504,-0.000526094,0.00186912,0.0155911,-8.97E-05,-9.765,-0.0285924,0.00241053,-0.0156848,0.0155911,-8.97E-05,0.0287447
2591,-7.35233,89.4412,164.362,-0.70863,-0.0503935,0.701872,-0.0517679,-0.000372384,-8.91E-06,0.000181548,9.80833,-0.0522763,0.0748107,32.8,99.277,0.024999,0.00381068,-0.00421557,0.0407266,0.244748,-0.000573183,0.0019019,0.0133176,0.0287077,-9.80871,0.0150526,-0.0265284,-0.0171745,0.0133176,0.0287077,-0.0149603
2591.02,-7.35233,89.4412,164.362,-0.70863,-0.0503935,0.701872,-0.0517679,-0.000372384,-8.91E-06,0.000181548,9.80833,-0.0522763,0.0748107,32.8,99.277,0.024999,0.00381068,-0.00421557,0.0407266,0.244748,-0.000573183,0.0019019,0.0133176,0.0287077,-9.80871,0.0150526,-0.0265284,-0.0171745,0.0133176,0.0287077,-0.0149603
2591.05,-7.18961,89.4405,164.513,-0.708629,-0.0504789,0.701861,-0.051836,-0.00131642,0.000388781,0.00033424,9.7972,-0.0088215,0.105867,32.8,99.277,0.025001,0.00296067,-0.00490437,0.0406257,0.244786,-0.000231273,0.00243135,-0.0111399,-0.0185195,-9.79775,0.00391902,0.0167076,0.0137332,-0.0111399,-0.0185195,-0.00400448
2591.07,-7.18961,89.4405,164.513,-0.708629,-0.0504789,0.701861,-0.051836,-0.00131642,0.000388781,0.00033424,9.7972,-0.0088215,0.105867,32.8,99.277,0.025001,0.00296067,-0.00490437,0.0406257,0.244786,-0.000231273,0.00243135,-0.0111399,-0.0185195,-9.79775,0.00391902,0.0167076,0.0137332,-0.0111399,-0.0185195,-0.00400448
2591.1,-7.2394,89.4405,164.453,-0.708631,-0.0505339,0.701851,-0.0519,-0.000638099,0.000693075,-0.000513932,9.75324,-0.030596,0.136833,32.8,99.277,0.025001,0.00460864,-0.0043717,0.0412803,0.244761,-0.00075096,0.00268959,-0.0451826,-0.00151674,-9.75414,-0.0400359,-0.00492298,0.0445525,-0.0451826,-0.00151674,0.0396013
2591.12,-7.2394,89.4405,164.453,-0.708631,-0.0505339,0.701851,-0.0519,-0.000638099,0.000693075,-0.000513932,9.75324,-0.030596,0.136833,32.8,99.277,0.025001,0.00460864,-0.0043717,0.0412803,0.244761,-0.00075096,0.00268959,-0.0451826,-0.00151674,-9.75414,-0.0400359,-0.00492298,0.0445525,-0.0451826,-0.00151674,0.0396013
2591.15,-7.31451,89.4401,164.375,-0.708627,-0.0505485,0.701853,-0.051923,-0.000196053,0.000226849,0.00116868,9.80846,-0.0626231,0.0767348,32.8,99.277,0.024999,0.00332994,-0.00546274,0.0412742,0.244697,-0.000720813,0.00233942,0.0101256,0.0386666,-9.80888,0.0151803,-0.0368369,-0.0154654,0.0101256,0.0386666,-0.015131
2591.17,-7.37427,89.4405,164.307,-0.708622,-0.0505944,0.701851,-0.0519761,0.000697367,9.00E-05,-0.00117149,9.75851,-0.0168627,0.112011,32.8,99.277,0.024999,0.00458938,-0.0047083,0.0414379,0.244474,-0.000476227,0.00234416,-0.0186878,-0.0117613,-9.75914,-0.0347717,0.00902558,0.0198664,-0.0186878,-0.0117613,0.0346069
2591.2,-7.37427,89.4405,164.307,-0.708622,-0.0505944,0.701851,-0.0519761,0.000697367,9.00E-05,-0.00117149,9.75851,-0.0168627,0.112011,32.8,99.277,0.024999,0.00458938,-0.0047083,0.0414379,0.244474,-0.000476227,0.00234416,-0.0186878,-0.0117613,-9.75914,-0.0347717,0.00902558,0.0198664,-0.0186878,-0.0117613,0.0346069
2591.23,-7.58308,89.4412,164.085,-0.708609,-0.0506641,0.701851,-0.0520698,-0.00138567,-0.00039999,0.000944015,9.80344,-0.0557246,0.0894483,32.8,99.277,0.025001,0.00266229,-0.00479983,0.0415772,0.244764,-0.000970888,0.00243796,-0.00170469,0.0295445,-9.80396,0.0101636,-0.029507,-0.00249879,-0.00170469,0.0295445,-0.0102186
2591.25,-7.58308,89.4412,164.085,-0.708609,-0.0506641,0.701851,-0.0520698,-0.00138567,-0.00039999,0.000944015,9.80344,-0.0557246,0.0894483,32.8,99.277,0.025001,0.00266229,-0.00479983,0.0415772,0.244764,-0.000970888,0.00243796,-0.00170469,0.0295445,-9.80396,0.0101636,-0.029507,-0.00249879,-0.00170469,0.0295445,-0.0102186
2591.28,-7.54919,89.4419,164.111,-0.708601,-0.0507148,0.701853,-0.0521145,0.00135173,-0.00096911,-0.000709845,9.79415,-0.038108,0.0891422,32.8075,99.281,0.024999,0.00463345,-0.00457306,0.0405996,0.244533,-0.000526626,0.00233906,0.000900999,0.0122353,-9.79463,0.000872285,-0.0119776,-0.00265786,0.000900999,0.0122353,-0.000879288
2591.3,-7.4396,89.4415,164.219,-0.7086,-0.0507329,0.701852,-0.0521194,0.00440606,0.000354175,0.000707978,9.78658,0.0167445,0.133833,32.8,99.277,0.025001,0.00619028,-0.00442999,0.0402632,0.244365,-0.000114706,0.00245063,-0.0354378,-0.0483292,-9.78732,-0.00670503,0.0426943,0.0420126,-0.0354378,-0.0483292,0.00642395
2591.33,-7.4396,89.4415,164.219,-0.7086,-0.0507329,0.701852,-0.0521194,0.00440606,0.000354175,0.000707978,9.78658,0.0167445,0.133833,32.8,99.277,0.025001,0.00619028,-0.00442999,0.0402632,0.244365,-0.000114706,0.00245063,-0.0354378,-0.0483292,-9.78732,-0.00670503,0.0426943,0.0420126,-0.0354378,-0.0483292,0.00642395
2591.35,-7.41378,89.4415,164.241,-0.708601,-0.0507601,0.701847,-0.0521447,-0.00273281,0.00118761,-0.000952929,9.81747,-0.0127543,0.084154,32.8,99.289,0.025001,0.00328233,-0.00465264,0.0411247,0.24491,-0.000845281,0.00183334,0.00980224,-0.011946,-9.81783,0.0241908,0.0131784,-0.00773806,0.00980224,-0.011946,-0.0240822
2591.38,-7.41378,89.4415,164.241,-0.708601,-0.0507601,0.701847,-0.0521447,-0.00273281,0.00118761,-0.000952929,9.81747,-0.0127543,0.084154,32.8,99.289,0.025001,0.00328233,-0.00465264,0.0411247,0.24491,-0.000845281,0.00183334,0.00980224,-0.011946,-9.81783,0.0241908,0.0131784,-0.00773806,0.00980224,-0.011946,-0.0240822
2591.4,-7.25122,89.4419,164.405,-0.7086,-0.0507594,0.701849,-0.0521235,-8.62E-05,-0.000245069,-0.00108092,9.75295,-0.0213468,0.0765136,32.8,99.265,0.025001,0.00695327,-0.00358377,0.040226,0.244197,9.73E-05,0.00197688,0.0154362,-0.00197302,-9.75326,-0.04033,0.00429795,-0.0153656,0.0154362,-0.00197302,0.0404835
2591.43,-7.25122,89.4419,164.405,-0.7086,-0.0507594,0.701849,-0.0521235,-8.62E-05,-0.000245069,-0.00108092,9.75295,-0.0213468,0.0765136,32.8,99.265,0.025001,0.00695327,-0.00358377,0.040226,0.244197,9.73E-05,0.00197688,0.0154362,-0.00197302,-9.75326,-0.04033,0.00429795,-0.0153656,0.0154362,-0.00197302,0.0404835
2591.45,-7.10958,89.4422,164.536,-0.708598,-0.0508327,0.701842,-0.0521812,-0.00105971,0.000122352,-0.00027761,9.78945,-0.0554559,0.101688,32.8,99.289,0.025,1.78E-05,-0.00409132,0.0407213,0.244776,-0.000525311,0.00281585,-0.014009,0.0282861,-9.79009,-0.00382673,-0.0300116,0.00971524,-0.014009,0.0282861,0.00365734
2591.48,-7.08375,89.4405,164.564,-0.708612,-0.0508155,0.70183,-0.0521655,0.00209883,0.00106084,0.000810849,9.85542,-0.0145355,0.151089,32.8,99.289,0.024999,0.00723498,-0.00332109,0.0410828,0.244547,-0.000482886,0.00312094,-0.0559566,-0.0194499,-9.85641,0.0621434,0.0109533,0.0587765,-0.0559566,-0.0194499,-0.0626659
2591.5,-7.08375,89.4405,164.564,-0.708612,-0.0508155,0.70183,-0.0521655,0.00209883,0.00106084,0.000810849,9.85542,-0.0145355,0.151089,32.8,99.289,0.024999,0.00723498,-0.00332109,0.0410828,0.244547,-0.000482886,0.00312094,-0.0559566,-0.0194499,-9.85641,0.0621434,0.0109533,0.0587765,-0.0559566,-0.0194499,-0.0626659
2591.53,-7.40898,89.4611,164.238,-0.708483,-0.0508316,0.701959,-0.052169,-0.00447324,-0.072098,-0.0114248,20.0757,0.210555,-0.0531699,32.785,99.277,0.024999,0.000917482,-0.026305,0.0379776,0.296782,0.000171427,0.00164957,0.270671,-0.224975,-20.0738,10.2824,0.235609,-0.141932,0.270671,-0.224975,-10.2801
2591.55,-7.40898,89.4611,164.238,-0.708483,-0.0508316,0.701959,-0.052169,-0.00447324,-0.072098,-0.0114248,20.0757,0.210555,-0.0531699,32.785,99.277,0.024999,0.000917482,-0.026305,0.0379776,0.296782,0.000171427,0.00164957,0.270671,-0.224975,-20.0738,10.2824,0.235609,-0.141932,0.270671,-0.224975,-10.2801
2591.58,-13.0909,89.6374,158.9,-0.707524,-0.0487225,0.703229,-0.0500436,0.0815745,-0.058746,0.10226,70.8256,10.9291,-3.45165,32.8,99.265,0.025,0.193749,-0.132291,0.004881,1.77331,0.0771106,-0.0746109,5.37908,-10.4434,-70.7787,61.032,10.9515,-3.50972,5.37908,-10.4434,-60.9849
2591.61,-39.6702,89.5675,132.137,-0.707223,-0.0486636,0.703368,-0.0523555,0.178555,-0.0309807,0.0866483,73.1514,7.8748,-0.0179099,32.8,99.302,0.024999,0.0567001,-0.0390556,0.0798459,1.81684,0.0239373,-0.0643622,1.56475,-8.14425,-73.1052,63.358,7.92962,-0.0675047,1.56475,-8.14425,-63.3114
2591.63,-39.6702,89.5675,132.137,-0.707223,-0.0486636,0.703368,-0.0523555,0.178555,-0.0309807,0.0866483,73.1514,7.8748,-0.0179099,32.8,99.302,0.024999,0.0567001,-0.0390556,0.0798459,1.81684,0.0239373,-0.0643622,1.56475,-8.14425,-73.1052,63.358,7.92962,-0.0675047,1.56475,-8.14425,-63.3114
2591.66,-38.8563,89.6039,133.415,-0.707292,-0.0459937,0.703698,-0.049312,0.343879,0.033483,-0.0891044,72.6978,3.33258,-3.58028,32.8,99.253,0.025,0.462045,-0.0248661,0.0103958,1.81799,-0.0854256,-0.0940722,4.38741,-3.13625,-72.6623,62.9043,3.38179,-3.62683,4.38741,-3.13625,-62.8685
2591.68,-38.8563,89.6039,133.415,-0.707292,-0.0459937,0.703698,-0.049312,0.343879,0.033483,-0.0891044,72.6978,3.33258,-3.58028,32.8,99.253,0.025,0.462045,-0.0248661,0.0103958,1.81799,-0.0854256,-0.0940722,4.38741,-3.13625,-72.6623,62.9043,3.38179,-3.62683,4.38741,-3.13625,-62.8685
2591.71,-29.9415,89.5922,142.368,-0.707604,-0.046017,0.703417,-0.0488188,-0.208383,0.0239942,0.0217339,73.7451,-1.73284,-0.763074,32.8,99.302,0.025,-0.224972,0.0142767,0.0181859,1.83,0.0364682,-0.0543753,0.979664,1.5571,-73.7465,63.9516,-1.69023,-0.818339,0.979664,1.5571,-63.9527
2591.73,-29.9415,89.5922,142.368,-0.707604,-0.046017,0.703417,-0.0488188,-0.208383,0.0239942,0.0217339,73.7451,-1.73284,-0.763074,32.8,99.302,0.025,-0.224972,0.0142767,0.0181859,1.83,0.0364682,-0.0543753,0.979664,1.5571,-73.7465,63.9516,-1.69023,-0.818339,0.979664,1.5571,-63.9527
2591.76,-47.3167,89.4706,124.437,-0.707309,-0.0482835,0.703229,-0.0534018,-0.142145,-0.0136053,0.0332184,73.6751,1.90117,-1.69227,32.8,99.302,0.025,-0.239516,-0.0175457,0.113426,1.84253,-0.0442561,-0.0408963,2.40974,-2.14003,-73.6486,63.8818,1.97594,-1.74354,2.40974,-2.14003,-63.8549
2591.78,-61.9028,89.4182,109.127,-0.706372,-0.0520031,0.703493,-0.0585884,-0.228191,-0.00871992,0.0312321,72.8082,-3.85722,-3.72328,32.8,99.203,0.025001,-0.374099,-0.0628088,0.0806223,1.82965,-0.0135794,-0.0666021,3.42489,3.73769,-72.8291,63.015,-3.76318,-3.7559,3.42489,3.73769,-63.0354
2591.81,-61.9028,89.4182,109.127,-0.706372,-0.0520031,0.703493,-0.0585884,-0.228191,-0.00871992,0.0312321,72.8082,-3.85722,-3.72328,32.8,99.203,0.025001,-0.374099,-0.0628088,0.0806223,1.82965,-0.0135794,-0.0666021,3.42489,3.73769,-72.8291,63.015,-3.76318,-3.7559,3.42489,3.73769,-63.0354
2591.83,-60.0268,89.4256,110.601,-0.70625,-0.0545592,0.703219,-0.0609745,-0.263533,0.0115888,0.0145546,73.5995,3.24456,-0.372004,32.8025,99.257,0.024999,-0.401181,0.0106427,0.027511,1.83297,-0.0085765,-0.0520929,1.26427,-3.78026,-73.564,63.8062,3.33654,-0.40658,1.26427,-3.78026,-63.7702
2591.86,-60.0268,89.4256,110.601,-0.70625,-0.0545592,0.703219,-0.0609745,-0.263533,0.0115888,0.0145546,73.5995,3.24456,-0.372004,32.8025,99.257,0.024999,-0.401181,0.0106427,0.027511,1.83297,-0.0085765,-0.0520929,1.26427,-3.78026,-73.564,63.8062,3.33654,-0.40658,1.26427,-3.78026,-63.7702
2591.89,-69.8219,89.3626,100.254,-0.705479,-0.0573612,0.703413,-0.0649549,-0.221482,-0.027609,0.0208735,73.6959,-3.91581,-0.487359,32.8,99.228,0.025,-0.285767,-0.0306674,0.0588998,1.83281,0.0120992,-0.0530724,0.0882253,3.17116,-73.7333,63.9028,-3.80856,-0.506764,0.0882253,3.17116,-63.9396
2591.91,-81.408,89.3977,88.0878,-0.704345,-0.0610113,0.703912,-0.0684397,-0.213426,-0.0501399,-0.00979106,73.6305,-1.19653,-1.41862,32.8,99.203,0.024999,-0.290546,-0.0694323,0.0184923,1.83458,0.000239486,-0.0397267,1.29248,0.668904,-73.6396,63.8374,-1.09353,-1.41518,1.29248,0.668904,-63.8458
2591.94,-81.408,89.3977,88.0878,-0.704345,-0.0610113,0.703912,-0.0684397,-0.213426,-0.0501399,-0.00979106,73.6305,-1.19653,-1.41862,32.8,99.203,0.024999,-0.290546,-0.0694323,0.0184923,1.83458,0.000239486,-0.0397267,1.29248,0.668904,-73.6396,63.8374,-1.09353,-1.41518,1.29248,0.668904,-63.8458
2591.96,-89.3476,89.4321,79.8466,-0.703667,-0.0630885,0.704247,-0.0700696,-0.221138,-0.0532643,-0.0236013,73.5237,-0.119337,-1.2278,32.8,99.277,0.025001,-0.297041,-0.0815588,-0.00260607,1.83508,0.00121504,-0.0421858,1.19194,-0.38093,-73.5234,63.7304,-0.0238343,-1.21069,1.19194,-0.38093,-63.7296
2591.99,-89.3476,89.4321,79.8466,-0.703667,-0.0630885,0.704247,-0.0700696,-0.221138,-0.0532643,-0.0236013,73.5237,-0.119337,-1.2278,32.8,99.277,0.025001,-0.297041,-0.0815588,-0.00260607,1.83508,0.00121504,-0.0421858,1.19194,-0.38093,-73.5234,63.7304,-0.0238343,-1.21069,1.19194,-0.38093,-63.7296
2592.01,-113.79,89.4644,54.7779,-0.701954,-0.0675458,0.705213,-0.0733053,-0.22506,-0.0801212,-0.0438072,73.2881,0.566095,-1.41783,32.8,99.179,0.025001,-0.316297,-0.10859,-0.0248515,1.83626,0.00216687,-0.0379059,1.22522,-0.901467,-73.2882,63.4948,0.640973,-1.36497,1.22522,-0.901467,-63.4945
2592.04,-113.79,89.4644,54.7779,-0.701954,-0.0675458,0.705213,-0.0733053,-0.22506,-0.0801212,-0.0438072,73.2881,0.566095,-1.41783,32.8,99.179,0.025001,-0.316297,-0.10859,-0.0248515,1.83626,0.00216687,-0.0379059,1.22522,-0.901467,-73.2882,63.4948,0.640973,-1.36497,1.22522,-0.901467,-63.4945
2592.06,-141.646,89.4212,26.211,-0.700111,-0.0728805,0.706152,-0.0766965,-0.256645,-0.0648701,-0.0681047,73.3919,0.322106,-2.22945,32.805,99.154,0.025,-0.363361,-0.107008,-0.0558638,1.83415,0.00181064,-0.0445001,1.66571,-0.306155,-73.4069,63.5987,0.365815,-2.14067,1.66571,-0.306155,-63.6132
2592.09,-165.002,89.241,2.09957,-0.697983,-0.0787287,0.70725,-0.0801217,-0.269369,-0.0933794,-0.0823458,72.8958,0.132013,-1.07426,32.8,99.142,0.025,-0.382016,-0.145627,-0.0721954,1.82198,0.00101311,-0.0347421,0.143455,-0.138888,-72.9036,63.1029,0.136768,-0.944566,0.143455,-0.138888,-63.1098
2592.11,-165.002,89.241,2.09957,-0.697983,-0.0787287,0.70725,-0.0801217,-0.269369,-0.0933794,-0.0823458,72.8958,0.132013,-1.07426,32.8,99.142,0.025,-0.382016,-0.145627,-0.0721954,1.82198,0.00101311,-0.0347421,0.143455,-0.138888,-72.9036,63.1029,0.136768,-0.944566,0.143455,-0.138888,-63.1098
2592.14,-173.099,89.0681,-6.40002,-0.696572,-0.0818613,0.70808,-0.0819115,-0.29645,-0.123751,-0.0863928,72.6549,0.0312248,-1.70558,32.8,99.105,0.024999,-0.401973,-0.172876,-0.0848476,1.82136,0.0019459,-0.0257854,0.492937,0.219907,-72.6729,62.8625,0.0134583,-1.54719,0.492937,0.219907,-62.8792
2592.16,-173.099,89.0681,-6.40002,-0.696572,-0.0818613,0.70808,-0.0819115,-0.29645,-0.123751,-0.0863928,72.6549,0.0312248,-1.70558,32.8,99.105,0.024999,-0.401973,-0.172876,-0.0848476,1.82136,0.0019459,-0.0257854,0.492937,0.219907,-72.6729,62.8625,0.0134583,-1.54719,0.492937,0.219907,-62.8792
2592.19,179.325,88.6464,-14.7827,-0.693426,-0.0879535,0.709985,-0.0857062,-0.275049,-0.146525,-0.0660669,72.5253,0.70702,-1.08731,32.8,99.105,0.025,-0.391718,-0.209165,-0.0616191,1.81423,0.0112054,-0.0266061,-0.487279,-0.400477,-72.5341,62.7343,0.647967,-0.863525,-0.487279,-0.400477,-62.7404
2592.21,178.738,88.1635,-16.1477,-0.689856,-0.0933025,0.712261,-0.0898722,-0.283479,-0.169412,-0.0286274,72.1245,1.0232,-1.71102,32.8,99.068,0.025001,-0.391558,-0.240763,-0.0149414,1.80868,0.018771,-0.0252218,-0.395611,-0.498383,-72.1492,62.3357,0.935898,-1.4095,-0.395611,-0.498383,-62.3554
2592.24,178.738,88.1635,-16.1477,-0.689856,-0.0933025,0.712261,-0.0898722,-0.283479,-0.169412,-0.0286274,72.1245,1.0232,-1.71102,32.8,99.068,0.025001,-0.391558,-0.240763,-0.0149414,1.80868,0.018771,-0.0252218,-0.395611,-0.498383,-72.1492,62.3357,0.935898,-1.4095,-0.395611,-0.498383,-62.3554
2592.26,-178.718,87.7037,-14.4406,-0.686245,-0.0983168,0.714397,-0.0950698,-0.282117,-0.156809,0.00357915,72.1077,1.01219,-1.48456,32.8,99.056,0.025,-0.408789,-0.24137,0.034323,1.80028,0.0184544,-0.0339403,-1.18656,-0.636701,-72.1175,62.3219,0.914335,-1.10454,-1.18656,-0.636701,-62.3238
2592.29,-178.718,87.7037,-14.4406,-0.686245,-0.0983168,0.714397,-0.0950698,-0.282117,-0.156809,0.00357915,72.1077,1.01219,-1.48456,32.8,99.056,0.025,-0.408789,-0.24137,0.034323,1.80028,0.0184544,-0.0339403,-1.18656,-0.636701,-72.1175,62.3219,0.914335,-1.10454,-1.18656,-0.636701,-62.3238
2592.32,-177.063,87.4798,-13.1946,-0.684454,-0.100583,0.715431,-0.0978028,-0.28072,-0.162328,0.0148812,71.6303,0.672918,-1.6512,32.8,99.031,0.024999,-0.403052,-0.238727,0.0549842,1.79615,0.0162283,-0.0301598,-1.37423,-0.34913,-71.6385,61.846,0.574616,-1.23191,-1.37423,-0.34913,-61.8447
2592.34,-177.063,87.4798,-13.1946,-0.684454,-0.100583,0.715431,-0.0978028,-0.28072,-0.162328,0.0148812,71.6303,0.672918,-1.6512,32.8,99.031,0.024999,-0.403052,-0.238727,0.0549842,1.79615,0.0162283,-0.0301598,-1.37423,-0.34913,-71.6385,61.846,0.574616,-1.23191,-1.37423,-0.34913,-61.8447
2592.37,-172.625,87.0203,-9.61141,-0.680734,-0.104755,0.717498,-0.104037,-0.31486,-0.186084,0.0535082,71.3838,0.528889,-0.502384,32.8,99.007,0.025001,-0.426717,-0.257494,0.112582,1.78626,0.0214353,-0.0186836,-3.046,-0.835461,-71.3176,61.6033,0.443882,-0.000402451,-3.046,-0.835461,-61.5239
2592.39,-168.585,86.5081,-6.56059,-0.676575,-0.109505,0.719626,-0.11133,-0.346017,-0.182869,0.0521889,70.8423,0.285287,-1.08246,32.8,98.97,0.025,-0.493081,-0.270884,0.117807,1.77149,0.0131776,-0.022375,-3.11397,-0.791719,-70.7782,61.0667,0.21713,-0.489837,-3.11397,-0.791719,-60.9845
2592.42,-168.585,86.5081,-6.56059,-0.676575,-0.109505,0.719626,-0.11133,-0.346017,-0.182869,0.0521889,70.8423,0.285287,-1.08246,32.8,98.97,0.025,-0.493081,-0.270884,0.117807,1.77149,0.0131776,-0.022375,-3.11397,-0.791719,-70.7782,61.0667,0.21713,-0.489837,-3.11397,-0.791719,-60.9845
2592.44,-164.915,86.0733,-3.99165,-0.672809,-0.114762,0.721034,-0.119445,-0.403843,-0.139624,0.0812604,70.381,0.483052,-1.37576,32.8,98.982,0.025001,-0.550454,-0.216301,0.149325,1.76062,0.0205306,-0.0245176,-3.1988,-1.26209,-70.3121,60.6103,0.436364,-0.706701,-3.1988,-1.26209,-60.5183
2592.47,-164.915,86.0733,-3.99165,-0.672809,-0.114762,0.721034,-0.119445,-0.403843,-0.139624,0.0812604,70.381,0.483052,-1.37576,32.8,98.982,0.025001,-0.550454,-0.216301,0.149325,1.76062,0.0205306,-0.0245176,-3.1988,-1.26209,-70.3121,60.6103,0.436364,-0.706701,-3.1988,-1.26209,-60.5183
2592.49,-162.999,85.9139,-2.66524,-0.671265,-0.117536,0.721288,-0.123827,-0.414377,-0.102571,0.0888419,69.9479,0.590492,-1.45955,32.8,98.957,0.024999,-0.574567,-0.171452,0.164912,1.7557,0.0191562,-0.0291486,-3.19682,-1.52325,-69.876,60.1791,0.558042,-0.762451,-3.19682,-1.52325,-60.0822
2592.52,-158.994,85.773,0.139775,-0.669309,-0.123173,0.720578,-0.132743,-0.421221,-0.0121241,0.106233,69.4705,0.965983,-1.21741,32.8025,98.888,0.024999,-0.584517,-0.0458445,0.189249,1.74166,0.0250801,-0.0321437,-3.3017,-2.30569,-69.371,59.7034,0.967745,-0.495533,-3.3017,-2.30569,-59.5773
2592.54,-158.994,85.773,0.139775,-0.669309,-0.123173,0.720578,-0.132743,-0.421221,-0.0121241,0.106233,69.4705,0.965983,-1.21741,32.8025,98.888,0.024999,-0.584517,-0.0458445,0.189249,1.74166,0.0250801,-0.0321437,-3.3017,-2.30569,-69.371,59.7034,0.967745,-0.495533,-3.3017,-2.30569,-59.5773
2592.57,-154.779,85.8588,3.07735,-0.668719,-0.129458,0.718266,-0.141948,-0.454279,0.0773469,0.101535,68.3538,1.93066,-1.90827,32.8,98.859,0.025,-0.640391,0.0723263,0.184509,1.72281,0.0203787,-0.0414062,-1.97466,-3.17434,-68.3054,58.5856,1.96863,-1.20202,-1.97466,-3.17434,-58.5117
2592.59,-154.779,85.8588,3.07735,-0.668719,-0.129458,0.718266,-0.141948,-0.454279,0.0773469,0.101535,68.3538,1.93066,-1.90827,32.8,98.859,0.025,-0.640391,0.0723263,0.184509,1.72281,0.0203787,-0.0414062,-1.97466,-3.17434,-68.3054,58.5856,1.96863,-1.20202,-1.97466,-3.17434,-58.5117
2592.62,-152.741,86.0051,4.45778,-0.669024,-0.132955,0.716442,-0.146425,-0.459398,0.130272,0.0897188,68.2701,1.55443,-1.65432,32.81,98.863,0.024999,-0.642045,0.150669,0.175169,1.71019,0.0190967,-0.0437388,-2.10399,-2.97205,-68.2107,58.5002,1.60746,-0.974061,-2.10399,-2.97205,-58.417
2592.64,-148.05,86.4847,7.74884,-0.670671,-0.140793,0.711471,-0.155522,-0.557937,0.201429,0.100973,66.7949,1.54562,-1.26438,32.8,98.822,0.025001,-0.703127,0.273314,0.170725,1.67693,0.0320401,-0.0372586,-1.68997,-3.05978,-66.7333,57.0196,1.62659,-0.669351,-1.68997,-3.05978,-56.9395
2592.67,-148.05,86.4847,7.74884,-0.670671,-0.140793,0.711471,-0.155522,-0.557937,0.201429,0.100973,66.7949,1.54562,-1.26438,32.8,98.822,0.025001,-0.703127,0.273314,0.170725,1.67693,0.0320401,-0.0372586,-1.68997,-3.05978,-66.7333,57.0196,1.62659,-0.669351,-1.68997,-3.05978,-56.9395
2592.7,-143.818,87.1264,10.0024,-0.672207,-0.153137,0.704828,-0.167045,-0.723375,0.255389,0.00638726,65.455,1.08122,-1.02919,32.78,98.756,0.024999,-1.02405,0.355384,0.075004,1.64654,0.0108055,-0.0379773,-1.2489,-2.45411,-65.414,55.6735,1.1665,-0.545653,-1.2489,-2.45411,-55.6203
2592.72,-143.818,87.1264,10.0024,-0.672207,-0.153137,0.704828,-0.167045,-0.723375,0.255389,0.00638726,65.455,1.08122,-1.02919,32.78,98.756,0.024999,-1.02405,0.355384,0.075004,1.64654,0.0108055,-0.0379773,-1.2489,-2.45411,-65.414,55.6735,1.1665,-0.545653,-1.2489,-2.45411,-55.6203
2592.75,-144.537,87.764,7.06161,-0.67251,-0.168431,0.698227,-0.178438,-0.766853,0.197151,-0.0793169,64.1606,0.544824,-1.59382,32.8,98.687,0.025001,-1.12597,0.280448,-0.0539565,1.61162,0.0110605,-0.0218227,-0.37877,-1.17422,-64.1709,54.3743,0.591801,-1.2146,-0.37877,-1.17422,-54.3771
2592.77,-144.537,87.764,7.06161,-0.67251,-0.168431,0.698227,-0.178438,-0.766853,0.197151,-0.0793169,64.1606,0.544824,-1.59382,32.8,98.687,0.025001,-1.12597,0.280448,-0.0539565,1.61162,0.0110605,-0.0218227,-0.37877,-1.17422,-64.1709,54.3743,0.591801,-1.2146,-0.37877,-1.17422,-54.3771
2592.8,-147.723,88.0602,2.77799,-0.672295,-0.176394,0.695122,-0.183603,-0.753429,0.197695,-0.10474,63.8801,1.1286,-0.455466,32.8,98.724,0.025,-1.08836,0.280428,-0.100331,1.59832,0.0169373,-0.0264595,-0.87621,-1.91284,-63.857,54.0919,1.14467,-0.124343,-0.87621,-1.91284,-54.0633
2592.82,-160.35,88.5793,-11.9817,-0.671538,-0.192117,0.689034,-0.193289,-0.750528,0.174674,-0.10501,64.7922,1.39122,-0.305483,32.8,98.675,0.025,-1.06344,0.258143,-0.123658,1.6092,0.023949,-0.0257006,-0.523509,-1.56465,-64.7868,55.0014,1.34081,-0.067922,-0.523509,-1.56465,-54.9931
2592.85,-160.35,88.5793,-11.9817,-0.671538,-0.192117,0.689034,-0.193289,-0.750528,0.174674,-0.10501,64.7922,1.39122,-0.305483,32.8,98.675,0.025,-1.06344,0.258143,-0.123658,1.6092,0.023949,-0.0257006,-0.523509,-1.56465,-64.7868,55.0014,1.34081,-0.067922,-0.523509,-1.56465,-54.9931
2592.87,-173.156,88.8216,-26.9227,-0.669431,-0.206619,0.683755,-0.204083,-0.753507,0.0641643,-0.0401286,51.4671,1.14487,-0.038966,32.8,98.613,0.025001,-1.06164,0.119098,-0.0326444,1.4089,0.0232057,-0.00760209,-0.38259,-1.05626,-51.4676,41.6755,1.05364,0.140668,-0.38259,-1.05626,-41.6739
2592.9,-173.156,88.8216,-26.9227,-0.669431,-0.206619,0.683755,-0.204083,-0.753507,0.0641643,-0.0401286,51.4671,1.14487,-0.038966,32.8,98.613,0.025001,-1.06164,0.119098,-0.0326444,1.4089,0.0232057,-0.00760209,-0.38259,-1.05626,-51.4676,41.6755,1.05364,0.140668,-0.38259,-1.05626,-41.6739
2592.92,-173.606,88.8832,-29.5065,-0.665902,-0.219296,0.67941,-0.216534,-0.724935,-0.0111248,0.0510023,31.7762,0.906066,-0.230962,32.8075,98.564,0.024999,-1.04864,-0.000752998,0.0845767,0.888005,0.027866,-0.00605387,0.102585,-0.667525,-31.7828,21.9843,0.812022,-0.0647806,0.102585,-0.667525,-21.989
2592.95,-167.696,88.8713,-24.6411,-0.663716,-0.224784,0.677566,-0.223287,-0.711789,-0.0669283,0.079642,21.3829,1.0502,0.878941,32.805,98.568,0.025,-1.03074,-0.0675862,0.138647,0.639283,0.0215624,0.0132255,-0.482722,-1.45736,-21.3716,11.5911,0.969758,1.0543,-0.482722,-1.45736,-11.5779
2592.97,-167.696,88.8713,-24.6411,-0.663716,-0.224784,0.677566,-0.223287,-0.711789,-0.0669283,0.079642,21.3829,1.0502,0.878941,32.805,98.568,0.025,-1.03074,-0.0675862,0.138647,0.639283,0.0215624,0.0132255,-0.482722,-1.45736,-21.3716,11.5911,0.969758,1.0543,-0.482722,-1.45736,-11.5779
2593,-153.383,88.6237,-12.3966,-0.658044,-0.235046,0.674902,-0.237149,-0.676358,-0.123934,0.0681281,3.1584,0.225732,-0.33675,32.8,98.527,0.024999,-0.996076,-0.187808,0.141393,0.15019,0.00621477,0.00270012,0.335821,0.00254734,-3.16656,-6.63252,0.175222,-0.106953,0.335821,0.00254734,6.62719
2593.02,-153.383,88.6237,-12.3966,-0.658044,-0.235046,0.674902,-0.237149,-0.676358,-0.123934,0.0681281,3.1584,0.225732,-0.33675,32.8,98.527,0.024999,-0.996076,-0.187808,0.141393,0.15019,0.00621477,0.00270012,0.335821,0.00254734,-3.16656,-6.63252,0.175222,-0.106953,0.335821,0.00254734,6.62719
2593.05,-143.67,88.3733,-4.76955,-0.652386,-0.245456,0.671703,-0.250915,-0.705279,-0.108965,0.0594318,-2.21991,-1.85436,1.13905,32.81,98.482,0.025,-1.05752,-0.137795,0.152248,-0.0404069,-0.0124354,0.0137045,-2.02617,0.686237,2.25561,-12.0097,-1.87747,1.4161,-2.02617,0.686237,12.0494
2593.07,-143.67,88.3733,-4.76955,-0.652386,-0.245456,0.671703,-0.250915,-0.705279,-0.108965,0.0594318,-2.21991,-1.85436,1.13905,32.81,98.482,0.025,-1.05752,-0.137795,0.152248,-0.0404069,-0.0124354,0.0137045,-2.02617,0.686237,2.25561,-12.0097,-1.87747,1.4161,-2.02617,0.686237,12.0494
2593.1,-140.362,88.0866,-3.47623,-0.646332,-0.256108,0.668779,-0.263437,-0.694567,-0.109365,0.0399088,-1.86645,-0.222865,1.18222,32.8,98.416,0.025,-0.987534,-0.147737,0.0933291,-0.0492193,0.0110764,0.0159008,-0.966832,-0.605117,1.90526,-11.6547,-0.242693,1.50862,-0.966832,-0.605117,11.699
2593.13,-138.947,87.9237,-3.05831,-0.643139,-0.261311,0.667366,-0.269651,-0.701041,-0.116276,0.0213162,-1.98176,-0.0838895,0.511146,32.8075,98.379,0.025,-0.990474,-0.170052,0.0808099,-0.0488775,0.00528082,0.0172504,-0.370989,-0.248178,1.99911,-11.7691,-0.10282,0.865468,-0.370989,-0.248178,11.7929
2593.15,-138.947,87.9237,-3.05831,-0.643139,-0.261311,0.667366,-0.269651,-0.701041,-0.116276,0.0213162,-1.98176,-0.0838895,0.511146,32.8075,98.379,0.025,-0.990474,-0.170052,0.0808099,-0.0488775,0.00528082,0.0172504,-0.370989,-0.248178,1.99911,-11.7691,-0.10282,0.865468,-0.370989,-0.248178,11.7929
2593.18,-141.055,87.7239,-7.19171,-0.636928,-0.27317,0.663945,-0.280854,-0.712283,0.00409462,-0.0793195,-2.10372,-0.0542067,-0.390763,32.8025,98.306,0.025,-1.0164,-0.053868,-0.0461388,-0.0547942,-0.014163,-0.0207061,0.296438,0.37163,2.08693,-11.8897,-0.102901,-0.00486183,0.296438,0.37163,11.8807
2593.2,-141.055,87.7239,-7.19171,-0.636928,-0.27317,0.663945,-0.280854,-0.712283,0.00409462,-0.0793195,-2.10372,-0.0542067,-0.390763,32.8025,98.306,0.025,-1.0164,-0.053868,-0.0461388,-0.0547942,-0.014163,-0.0207061,0.296438,0.37163,2.08693,-11.8897,-0.102901,-0.00486183,0.296438,0.37163,11.8807
2593.23,-148.221,87.7319,-16.357,-0.631637,-0.286438,0.659375,-0.290194,-0.686666,0.0365029,-0.104485,-1.94606,-0.0528188,0.542268,32.8075,98.281,0.024999,-0.979319,0.0382741,-0.105286,-0.0500652,0.000945339,0.00751027,-0.335398,-0.327812,1.96571,-11.7321,-0.161977,0.914187,-0.335398,-0.327812,11.7595
2593.25,-152.387,87.7349,-21.4851,-0.629107,-0.292977,0.65702,-0.294471,-0.656144,0.0456806,-0.10832,-2.04432,0.693146,0.393295,32.8,98.219,0.025001,-0.96094,0.0516792,-0.113871,-0.0495728,0.00415995,0.0130294,0.338055,-0.713625,2.04715,-11.8304,0.551375,0.753479,0.338055,-0.713625,11.8409
2593.28,-152.387,87.7349,-21.4851,-0.629107,-0.292977,0.65702,-0.294471,-0.656144,0.0456806,-0.10832,-2.04432,0.693146,0.393295,32.8,98.219,0.025001,-0.96094,0.0516792,-0.113871,-0.0495728,0.00415995,0.0130294,0.338055,-0.713625,2.04715,-11.8304,0.551375,0.753479,0.338055,-0.713625,11.8409
2593.3,-160.448,87.8129,-31.3861,-0.624849,-0.305406,0.651697,-0.302624,-0.655773,0.0862162,-0.0649502,-1.91321,0.278908,0.264802,32.8,98.17,0.025001,-0.911817,0.110122,-0.0660702,-0.0490874,0.0103819,0.00759088,0.118556,-0.356911,1.9149,-11.6998,0.084241,0.583892,0.118556,-0.356911,11.7087
2593.33,-160.448,87.8129,-31.3861,-0.624849,-0.305406,0.651697,-0.302624,-0.655773,0.0862162,-0.0649502,-1.91321,0.278908,0.264802,32.8,98.17,0.025001,-0.911817,0.110122,-0.0660702,-0.0490874,0.0103819,0.00759088,0.118556,-0.356911,1.9149,-11.6998,0.084241,0.583892,0.118556,-0.356911,11.7087
2593.35,-166.485,87.9637,-39.3,-0.620975,-0.317239,0.645473,-0.311632,-0.686093,0.081052,-0.0137103,-1.8431,0.0107294,0.319183,32.805,98.101,0.024999,-0.953241,0.11756,0.0150445,-0.0468934,0.00626721,0.0138482,-0.120534,-0.245431,1.85048,-11.6307,-0.209708,0.588506,-0.120534,-0.245431,11.6442
2593.38,-166.485,87.9637,-39.3,-0.620975,-0.317239,0.645473,-0.311632,-0.686093,0.081052,-0.0137103,-1.8431,0.0107294,0.319183,32.805,98.101,0.024999,-0.953241,0.11756,0.0150445,-0.0468934,0.00626721,0.0138482,-0.120534,-0.245431,1.85048,-11.6307,-0.209708,0.588506,-0.120534,-0.245431,11.6442
2593.4,-170.011,88.1561,-44.7946,-0.616888,-0.328681,0.638605,-0.321874,-0.692994,0.0672201,0.0277269,-1.83843,0.477295,0.637913,32.81,98.064,0.025,-0.990482,0.100032,0.0755511,-0.0460352,0.00781055,0.0122382,0.0804003,-0.78613,1.84122,-11.6271,0.255232,0.861576,0.0804003,-0.78613,11.635
2593.43,-170.423,88.2308,-46.2223,-0.61448,-0.334265,0.635208,-0.327401,-0.714876,0.0281828,0.0304247,-1.60556,0.0361547,1.138,32.81,98.051,0.025,-1.01195,0.0570638,0.0852731,-0.0434202,0.00405204,0.0244011,-0.56052,-0.953225,1.6283,-11.3946,-0.182177,1.34721,-0.56052,-0.953225,11.422
2593.46,-170.423,88.2308,-46.2223,-0.61448,-0.334265,0.635208,-0.327401,-0.714876,0.0281828,0.0304247,-1.60556,0.0361547,1.138,32.81,98.051,0.025,-1.01195,0.0570638,0.0852731,-0.0434202,0.00405204,0.0244011,-0.56052,-0.953225,1.6283,-11.3946,-0.182177,1.34721,-0.56052,-0.953225,11.422
2593.48,-168.611,88.3312,-46.4235,-0.609126,-0.344861,0.628764,-0.338662,-0.690869,0.0161101,0.0538742,-1.94399,0.815863,-0.0893155,32.8,97.986,0.025001,-0.988525,0.0123005,0.10284,-0.0474351,0.0141285,0.000811917,0.793272,-0.347896,1.92417,-11.7336,0.60925,0.107278,0.793272,-0.347896,11.7179
2593.51,-168.611,88.3312,-46.4235,-0.609126,-0.344861,0.628764,-0.338662,-0.690869,0.0161101,0.0538742,-1.94399,0.815863,-0.0893155,32.8,97.986,0.025001,-0.988525,0.0123005,0.10284,-0.0474351,0.0141285,0.000811917,0.793272,-0.347896,1.92417,-11.7336,0.60925,0.107278,0.793272,-0.347896,11.7179
2593.53,-164.331,88.4459,-44.1922,-0.603449,-0.355142,0.622039,-0.350417,-0.738063,-0.0269196,0.046861,-1.64972,-0.000966791,0.90035,32.8075,97.961,0.025,-1.04045,-0.0275797,0.114432,-0.043654,-0.00100959,0.0171511,-0.409585,-0.765999,1.66664,-11.4399,-0.186136,1.09082,-0.409585,-0.765999,11.4604
2593.56,-158.298,88.379,-40.3513,-0.596007,-0.366054,0.615749,-0.362813,-0.783821,-0.0759583,0.00975894,-1.7564,0.133849,0.487738,32.8025,97.904,0.025,-1.10751,-0.101361,0.0664347,-0.0439059,-0.00102824,0.0130622,-0.0640648,-0.475173,1.76376,-11.5462,-0.0455387,0.698882,-0.0640648,-0.475173,11.5575
2593.58,-158.298,88.379,-40.3513,-0.596007,-0.366054,0.615749,-0.362813,-0.783821,-0.0759583,0.00975894,-1.7564,0.133849,0.487738,32.8025,97.904,0.025,-1.10751,-0.101361,0.0664347,-0.0439059,-0.00102824,0.0130622,-0.0640648,-0.475173,1.76376,-11.5462,-0.0455387,0.698882,-0.0640648,-0.475173,11.5575
2593.61,-155.486,88.2674,-38.6802,-0.591604,-0.371758,0.612822,-0.369121,-0.803528,-0.107033,-0.0144871,-1.86212,-0.134716,0.349635,32.8,97.912,0.025,-1.13495,-0.142968,0.0335323,-0.043847,-0.00258096,0.0135728,-0.226543,-0.227882,1.87207,-11.6514,-0.31977,0.580784,-0.226543,-0.227882,11.6658
2593.64,-155.486,88.2674,-38.6802,-0.591604,-0.371758,0.612822,-0.369121,-0.803528,-0.107033,-0.0144871,-1.86212,-0.134716,0.349635,32.8,97.912,0.025,-1.13495,-0.142968,0.0335323,-0.043847,-0.00258096,0.0135728,-0.226543,-0.227882,1.87207,-11.6514,-0.31977,0.580784,-0.226543,-0.227882,11.6658
2593.66,-150.003,87.8957,-35.5974,-0.581319,-0.383588,0.607256,-0.382319,-0.847755,-0.180982,-0.0325119,-1.72337,0.488499,1.20866,32.805,97.85,0.024999,-1.2155,-0.235158,-0.00181777,-0.0427179,0.00668421,0.0258272,0.000657082,-1.27063,1.74785,-11.5105,0.279174,1.50107,0.000657082,-1.27063,11.5416
2593.69,-145.02,87.4174,-33.0972,-0.569868,-0.395443,0.601735,-0.395967,-0.864844,-0.170365,-0.0375119,-1.80506,0.249661,0.455092,32.8,97.814,0.024999,-1.24052,-0.25169,-0.00955493,-0.0454368,0.00330869,0.00655848,0.128547,-0.468622,1.81426,-11.5889,0.00867227,0.824807,0.128547,-0.468622,11.608
2593.71,-145.02,87.4174,-33.0972,-0.569868,-0.395443,0.601735,-0.395967,-0.864844,-0.170365,-0.0375119,-1.80506,0.249661,0.455092,32.8,97.814,0.024999,-1.24052,-0.25169,-0.00955493,-0.0454368,0.00330869,0.00655848,0.128547,-0.468622,1.81426,-11.5889,0.00867227,0.824807,0.128547,-0.468622,11.608
2593.74,-141.936,87.0072,-32.4396,-0.5588,-0.407075,0.595687,-0.408887,-0.838185,-0.125854,-0.0271982,-1.80717,0.269605,-0.0584186,32.8,97.764,0.025,-1.2002,-0.1989,-0.00260895,-0.0447235,0.00708033,0.00183926,0.347723,0.0230976,1.79458,-11.5876,-0.00468275,0.373131,0.347723,0.0230976,11.5883
2593.76,-141.936,87.0072,-32.4396,-0.5588,-0.407075,0.595687,-0.408887,-0.838185,-0.125854,-0.0271982,-1.80717,0.269605,-0.0584186,32.8,97.764,0.025,-1.2002,-0.1989,-0.00260895,-0.0447235,0.00708033,0.00183926,0.347723,0.0230976,1.79458,-11.5876,-0.00468275,0.373131,0.347723,0.0230976,11.5883
2593.79,-140.759,86.8537,-32.444,-0.553609,-0.412744,0.592365,-0.415045,-0.828272,-0.110514,-0.0128001,-1.72662,0.214393,0.312207,32.8025,97.74,0.024999,-1.17532,-0.167972,0.0118178,-0.0443432,0.0061532,0.00471187,0.178991,-0.303675,1.73216,-11.5056,-0.0739805,0.76584,0.178991,-0.303675,11.5259
2593.81,-140.759,86.8537,-32.444,-0.553609,-0.412744,0.592365,-0.415045,-0.828272,-0.110514,-0.0128001,-1.72662,0.214393,0.312207,32.8025,97.74,0.024999,-1.17532,-0.167972,0.0118178,-0.0443432,0.0061532,0.00471187,0.178991,-0.303675,1.73216,-11.5056,-0.0739805,0.76584,0.178991,-0.303675,11.5259
2593.84,-138.292,86.6591,-32.2216,-0.544201,-0.423315,0.585284,-0.426723,-0.75947,-0.0594241,0.0216812,-1.8021,0.522279,0.16067,32.8075,97.703,0.024999,-1.09569,-0.107042,0.0616101,-0.0439469,0.00847778,0.00291236,0.535613,-0.229258,1.79073,-11.5792,0.217964,0.64351,0.535613,-0.229258,11.5845
2593.86,-135.57,86.6755,-31.6628,-0.536237,-0.433324,0.577007,-0.437885,-0.730854,0.00259435,0.077051,-1.72716,0.277488,0.164634,32.81,97.658,0.024999,-1.06602,-0.0174798,0.132104,-0.0442753,0.00932702,0.00077425,0.301304,-0.156391,1.72393,-11.5044,-0.0206521,0.648064,0.301304,-0.156391,11.5177
2593.89,-135.57,86.6755,-31.6628,-0.536237,-0.433324,0.577007,-0.437885,-0.730854,0.00259435,0.077051,-1.72716,0.277488,0.164634,32.81,97.658,0.024999,-1.06602,-0.0174798,0.132104,-0.0442753,0.00932702,0.00077425,0.301304,-0.156391,1.72393,-11.5044,-0.0206521,0.648064,0.301304,-0.156391,11.5177
2593.91,-133.77,86.7749,-30.9057,-0.532926,-0.43801,0.572369,-0.443317,-0.713613,0.0281713,0.110201,-1.66589,-0.138185,0.344157,32.81,97.645,0.025001,-1.0358,0.0268976,0.18046,-0.0442904,0.0127474,0.00397853,-0.146105,-0.236652,1.68386,-11.4441,-0.421196,0.816927,-0.146105,-0.236652,11.4776
2593.94,-133.77,86.7749,-30.9057,-0.532926,-0.43801,0.572369,-0.443317,-0.713613,0.0281713,0.110201,-1.66589,-0.138185,0.344157,32.81,97.645,0.025001,-1.0358,0.0268976,0.18046,-0.0442904,0.0127474,0.00397853,-0.146105,-0.236652,1.68386,-11.4441,-0.421196,0.816927,-0.146105,-0.236652,11.4776
2593.96,-129.396,87.0939,-28.4602,-0.527596,-0.446492,0.562792,-0.45338,-0.650905,0.0730276,0.141731,-1.8493,-0.0415145,0.0415365,32.81,97.584,0.025001,-0.942725,0.0877184,0.233944,-0.0432377,0.00550773,0.010973,0.0109154,0.0396081,1.84977,-11.6304,-0.278153,0.478093,0.0109154,0.0396081,11.6435
2593.99,-129.396,87.0939,-28.4602,-0.527596,-0.446492,0.562792,-0.45338,-0.650905,0.0730276,0.141731,-1.8493,-0.0415145,0.0415365,32.81,97.584,0.025001,-0.942725,0.0877184,0.233944,-0.0432377,0.00550773,0.010973,0.0109154,0.0396081,1.84977,-11.6304,-0.278153,0.478093,0.0109154,0.0396081,11.6435
2594.01,-125.011,87.552,-25.8959,-0.523403,-0.454793,0.552645,-0.462381,-0.632462,0.142647,0.121626,-1.70148,-0.222519,-0.105157,32.8,97.555,0.024999,-0.896012,0.179805,0.228318,-0.0437772,-0.00478464,-0.00259475,-0.161353,0.198606,1.70003,-11.4863,-0.40522,0.271171,-0.161353,0.198606,11.4938
2594.04,-123.164,88.0773,-25.9109,-0.519117,-0.464143,0.541986,-0.470469,-0.663136,0.153714,0.0886732,-1.66289,0.0629017,0.453468,32.805,97.498,0.025001,-0.934746,0.219097,0.174402,-0.0412049,-0.00315308,0.0100525,0.0357833,-0.410897,1.67472,-11.4511,-0.0806836,0.749027,0.0357833,-0.410897,11.4685
2594.06,-123.164,88.0773,-25.9109,-0.519117,-0.464143,0.541986,-0.470469,-0.663136,0.153714,0.0886732,-1.66289,0.0629017,0.453468,32.805,97.498,0.025001,-0.934746,0.219097,0.174402,-0.0412049,-0.00315308,0.0100525,0.0357833,-0.410897,1.67472,-11.4511,-0.0806836,0.749027,0.0357833,-0.410897,11.4685
2594.09,-122.953,88.3251,-26.6501,-0.5167,-0.468998,0.536648,-0.474417,-0.669524,0.149302,0.0818972,-1.60561,0.184639,0.349632,32.8025,97.481,0.024999,-0.946399,0.21444,0.156565,-0.0401695,0.000886511,0.0105246,0.170724,-0.328323,1.61164,-11.3952,0.0562306,0.6055,0.170724,-0.328323,11.4054
2594.11,-122.953,88.3251,-26.6501,-0.5167,-0.468998,0.536648,-0.474417,-0.669524,0.149302,0.0818972,-1.60561,0.184639,0.349632,32.8025,97.481,0.024999,-0.946399,0.21444,0.156565,-0.0401695,0.000886511,0.0105246,0.170724,-0.328323,1.61164,-11.3952,0.0562306,0.6055,0.170724,-0.328323,11.4054
2594.14,-123.72,88.7573,-29.3515,-0.511207,-0.478764,0.526122,-0.482335,-0.686026,0.111867,0.0455237,-1.45116,-0.0275423,0.87419,32.8,97.408,0.024999,-0.967316,0.177548,0.123349,-0.0382999,-0.00274568,0.0170219,-0.0764848,-0.843223,1.46764,-11.2426,-0.131654,1.05932,-0.0764848,-0.843223,11.2614
2594.16,-126.805,88.9491,-34.5,-0.503533,-0.488767,0.516336,-0.490875,-0.743001,0.0398013,-0.000324296,-1.62171,0.275406,0.578923,32.81,97.412,0.025,-1.04914,0.0669127,0.0489998,-0.0380186,-0.00108063,0.0156586,0.269759,-0.565662,1.62733,-11.4138,0.173617,0.727028,0.269759,-0.565662,11.4211
2594.19,-126.805,88.9491,-34.5,-0.503533,-0.488767,0.516336,-0.490875,-0.743001,0.0398013,-0.000324296,-1.62171,0.275406,0.578923,32.81,97.412,0.025,-1.04914,0.0669127,0.0489998,-0.0380186,-0.00108063,0.0156586,0.269759,-0.565662,1.62733,-11.4138,0.173617,0.727028,0.269759,-0.565662,11.4211
2594.22,-130.174,88.936,-40.0844,-0.493826,-0.499028,0.506916,-0.500143,-0.799572,-0.0142281,-0.0349135,-1.46638,0.190807,0.628824,32.8075,97.358,0.024999,-1.12155,-0.0121423,8.90E-05,-0.0373393,-0.000682465,0.0149904,0.207432,-0.608261,1.47278,-11.2584,0.0736468,0.768033,0.207432,-0.608261,11.2665
2594.24,-130.174,88.936,-40.0844,-0.493826,-0.499028,0.506916,-0.500143,-0.799572,-0.0142281,-0.0349135,-1.46638,0.190807,0.628824,32.8075,97.358,0.024999,-1.12155,-0.0121423,8.90E-05,-0.0373393,-0.000682465,0.0149904,0.207432,-0.608261,1.47278,-11.2584,0.0736468,0.768033,0.207432,-0.608261,11.2665
2594.27,-131.077,88.8632,-42.1395,-0.488316,-0.504173,0.502323,-0.505003,-0.814808,-0.0407422,-0.0481717,-1.47584,-0.222644,0.574646,32.8,97.334,0.025,-1.14827,-0.0478285,-0.0197336,-0.037544,-0.000171039,0.0159686,-0.192637,-0.556515,1.48697,-11.2677,-0.353024,0.718741,-0.192637,-0.556515,11.2807
2594.29,-131.077,88.8632,-42.1395,-0.488316,-0.504173,0.502323,-0.505003,-0.814808,-0.0407422,-0.0481717,-1.47584,-0.222644,0.574646,32.8,97.334,0.025,-1.14827,-0.0478285,-0.0197336,-0.037544,-0.000171039,0.0159686,-0.192637,-0.556515,1.48697,-11.2677,-0.353024,0.718741,-0.192637,-0.556515,11.2807
2594.32,-131.349,88.6389,-44.7301,-0.476603,-0.51421,0.493391,-0.514784,-0.81119,-0.0647881,-0.0593698,-1.59229,0.412547,0.441834,32.8,97.309,0.025001,-1.15528,-0.0929311,-0.0421524,-0.037743,0.00507062,0.0118497,0.462881,-0.388334,1.5924,-11.3833,0.248816,0.607116,0.462881,-0.388334,11.3861
2594.34,-130.508,88.3855,-46.1862,-0.464615,-0.523813,0.484531,-0.524388,-0.801693,-0.0672773,-0.0567153,-1.46607,0.255789,0.427644,32.805,97.264,0.025001,-1.13773,-0.101825,-0.040973,-0.0376962,0.0052477,0.00846447,0.323706,-0.368798,1.46863,-11.2559,0.056674,0.618681,0.323706,-0.368798,11.2624
2594.37,-130.508,88.3855,-46.1862,-0.464615,-0.523813,0.484531,-0.524388,-0.801693,-0.0672773,-0.0567153,-1.46607,0.255789,0.427644,32.805,97.264,0.025001,-1.13773,-0.101825,-0.040973,-0.0376962,0.0052477,0.00846447,0.323706,-0.368798,1.46863,-11.2559,0.056674,0.618681,0.323706,-0.368798,11.2624
2594.39,-129.171,88.1571,-47.0763,-0.452918,-0.532835,0.475651,-0.53358,-0.777711,-0.0546821,-0.0393616,-1.54402,0.418333,0.284581,32.81,97.227,0.025001,-1.10149,-0.0925644,-0.0198114,-0.0386024,0.00896107,0.00484461,0.484828,-0.185887,1.53961,-11.3327,0.187679,0.499096,0.484828,-0.185887,11.3334
2594.42,-129.171,88.1571,-47.0763,-0.452918,-0.532835,0.475651,-0.53358,-0.777711,-0.0546821,-0.0393616,-1.54402,0.418333,0.284581,32.81,97.227,0.025001,-1.10149,-0.0925644,-0.0198114,-0.0386024,0.00896107,0.00484461,0.484828,-0.185887,1.53961,-11.3327,0.187679,0.499096,0.484828,-0.185887,11.3334
2594.44,-128.74,88.0671,-47.752,-0.447187,-0.537293,0.471031,-0.538023,-0.769805,-0.0473961,-0.0407352,-1.53808,0.628425,0.434958,32.8025,97.215,0.024999,-1.10194,-0.0759948,-0.0156891,-0.0372573,0.00363867,0.0083185,0.721204,-0.290765,1.53138,-11.3263,0.383879,0.657073,0.721204,-0.290765,11.3251
2594.47,-128.963,87.9469,-50.127,-0.436252,-0.546077,0.461588,-0.546279,-0.731997,-0.00775458,-0.0280255,-1.39377,0.42508,0.459159,32.81,97.178,0.024999,-1.05872,-0.0277679,-0.00340098,-0.0370891,0.00711881,0.00735854,0.537326,-0.329354,1.39174,-11.1812,0.155801,0.684096,0.537326,-0.329354,11.1855
2594.49,-128.963,87.9469,-50.127,-0.436252,-0.546077,0.461588,-0.546279,-0.731997,-0.00775458,-0.0280255,-1.39377,0.42508,0.459159,32.81,97.178,0.024999,-1.05872,-0.0277679,-0.00340098,-0.0370891,0.00711881,0.00735854,0.537326,-0.329354,1.39174,-11.1812,0.155801,0.684096,0.537326,-0.329354,11.1855
2594.52,-131.689,87.9404,-54.8688,-0.426554,-0.554716,0.451931,-0.553263,-0.669338,0.0647566,-0.0138035,-1.57399,0.434971,-0.263552,32.8075,97.137,0.024999,-0.981745,0.0627642,0.0109494,-0.038525,0.000842941,-0.00872878,0.400826,0.39779,1.55474,-11.3614,0.147093,-0.0609946,0.400826,0.39779,11.3485
2594.54,-131.689,87.9404,-54.8688,-0.426554,-0.554716,0.451931,-0.553263,-0.669338,0.0647566,-0.0138035,-1.57399,0.434971,-0.263552,32.8075,97.137,0.024999,-0.981745,0.0627642,0.0109494,-0.038525,0.000842941,-0.00872878,0.400826,0.39779,1.55474,-11.3614,0.147093,-0.0609946,0.400826,0.39779,11.3485
2594.57,-136.05,88.1162,-61.0854,-0.418736,-0.562773,0.441724,-0.559309,-0.618838,0.0753748,0.0578208,-1.44944,0.875696,0.553304,32.8075,97.092,0.024999,-0.905371,0.106116,0.101648,-0.0355702,0.0220338,0.0120791,1.02336,-0.274321,1.43226,-11.2379,0.593892,0.708962,1.02336,-0.274321,11.226
2594.59,-136.05,88.1162,-61.0854,-0.418736,-0.562773,0.441724,-0.559309,-0.618838,0.0753748,0.0578208,-1.44944,0.875696,0.553304,32.8075,97.092,0.024999,-0.905371,0.106116,0.101648,-0.0355702,0.0220338,0.0120791,1.02336,-0.274321,1.43226,-11.2379,0.593892,0.708962,1.02336,-0.274321,11.226
2594.62,-138.148,88.2222,-64.0646,-0.415145,-0.566454,0.436673,-0.562228,-0.613901,0.0780768,0.0381764,-1.39913,0.276391,0.402995,32.8,97.051,0.025001,-0.878126,0.103664,0.104215,-0.0342757,-0.00682809,0.0125249,0.408613,-0.282815,1.39622,-11.1882,0.0031721,0.535871,0.408613,-0.282815,11.19
2594.65,-146.252,88.4233,-73.882,-0.408293,-0.574001,0.426573,-0.567323,-0.581831,0.125456,0.0356348,-1.51952,0.969137,0.150674,32.805,97.055,0.025,-0.844619,0.161534,0.0913643,-0.0361862,0.00281033,5.12E-05,1.00374,0.172966,1.49448,-11.3096,0.710216,0.225496,1.00374,0.172966,11.2882
2594.67,-146.252,88.4233,-73.882,-0.408293,-0.574001,0.426573,-0.567323,-0.581831,0.125456,0.0356348,-1.51952,0.969137,0.150674,32.805,97.055,0.025,-0.844619,0.161534,0.0913643,-0.0361862,0.00281033,5.12E-05,1.00374,0.172966,1.49448,-11.3096,0.710216,0.225496,1.00374,0.172966,11.2882
2594.7,-160.961,88.5915,-90.2285,-0.402176,-0.581639,0.416312,-0.571521,-0.573554,0.144597,0.0409497,-1.27582,-0.142009,0.402775,32.81,97.006,0.025001,-0.816071,0.200618,0.0991866,-0.0344585,0.00220374,0.00718766,0.028539,-0.41683,1.27889,-11.0666,-0.382763,0.401815,0.028539,-0.41683,11.0726
2594.72,-160.961,88.5915,-90.2285,-0.402176,-0.581639,0.416312,-0.571521,-0.573554,0.144597,0.0409497,-1.27582,-0.142009,0.402775,32.81,97.006,0.025001,-0.816071,0.200618,0.0991866,-0.0344585,0.00220374,0.00718766,0.028539,-0.41683,1.27889,-11.0666,-0.382763,0.401815,0.028539,-0.41683,11.0726
2594.75,-169.712,88.6314,-99.7949,-0.399134,-0.585426,0.41113,-0.573533,-0.567792,0.145003,0.0409722,-1.30421,-0.0316965,0.375003,32.81,96.969,0.025,-0.813769,0.202932,0.0989616,-0.0335681,0.00192585,0.00876613,0.129644,-0.357524,1.30306,-11.0952,-0.262245,0.335202,0.129644,-0.357524,11.0968
2594.77,174.294,88.6236,-117.436,-0.392715,-0.592714,0.400804,-0.577773,-0.57682,0.117034,0.0351164,-1.32122,-0.0155529,0.447261,32.81,96.944,0.025,-0.822611,0.166632,0.0985488,-0.0320271,0.00234127,0.0114197,0.182675,-0.424386,1.31621,-11.1121,-0.224388,0.338845,0.182675,-0.424386,11.11
2594.8,174.294,88.6236,-117.436,-0.392715,-0.592714,0.400804,-0.577773,-0.57682,0.117034,0.0351164,-1.32122,-0.0155529,0.447261,32.81,96.944,0.025,-0.822611,0.166632,0.0985488,-0.0320271,0.00234127,0.0114197,0.182675,-0.424386,1.31621,-11.1121,-0.224388,0.338845,0.182675,-0.424386,11.11
2594.82,163.542,88.5465,-129.894,-0.385405,-0.599665,0.390598,-0.582493,-0.61697,0.0693151,0.0235038,-1.24603,0.00032559,0.506473,32.81,96.895,0.025,-0.860532,0.110639,0.0753721,-0.030902,0.00117048,0.0153044,0.23195,-0.473488,1.23739,-11.0366,-0.1903,0.347119,0.23195,-0.473488,11.0311
2594.85,163.542,88.5465,-129.894,-0.385405,-0.599665,0.390598,-0.582493,-0.61697,0.0693151,0.0235038,-1.24603,0.00032559,0.506473,32.81,96.895,0.025,-0.860532,0.110639,0.0753721,-0.030902,0.00117048,0.0153044,0.23195,-0.473488,1.23739,-11.0366,-0.1903,0.347119,0.23195,-0.473488,11.0311
2594.87,159.79,88.4666,-135.432,-0.376738,-0.606303,0.380731,-0.587801,-0.636303,0.0271666,-0.0158705,-1.26282,-0.163824,0.363435,32.81,96.871,0.024999,-0.89851,0.043306,0.0302284,-0.0301412,-0.00322919,0.0110298,0.0383403,-0.410255,1.25852,-11.0531,-0.347774,0.176688,0.0383403,-0.410255,11.0523
2594.9,159.79,88.4666,-135.432,-0.376738,-0.606303,0.380731,-0.587801,-0.636303,0.0271666,-0.0158705,-1.26282,-0.163824,0.363435,32.81,96.871,0.024999,-0.89851,0.043306,0.0302284,-0.0301412,-0.00322919,0.0110298,0.0383403,-0.410255,1.25852,-11.0531,-0.347774,0.176688,0.0383403,-0.410255,11.0523
2594.92,160.343,88.4231,-135.81,-0.371807,-0.609611,0.375941,-0.590595,-0.659025,0.00706843,-0.0347974,-1.14926,0.190507,0.638493,32.81,96.858,0.025,-0.925615,0.0157125,1.62E-05,-0.0294306,-0.00168417,0.0130692,0.482002,-0.499719,1.13257,-10.9393,0.00264534,0.445242,0.482002,-0.499719,10.9263
2594.95,164.822,88.3891,-133.273,-0.360946,-0.615917,0.366351,-0.596784,-0.689144,-0.0445056,-0.0465376,-1.19454,0.319624,0.485154,32.8,96.805,0.025001,-0.974901,-0.0548168,-0.0169212,-0.0294529,0.00401007,0.0137716,0.542635,-0.286201,1.17817,-10.9844,0.119141,0.296406,0.542635,-0.286201,10.9719
2594.97,164.822,88.3891,-133.273,-0.360946,-0.615917,0.366351,-0.596784,-0.689144,-0.0445056,-0.0465376,-1.19454,0.319624,0.485154,32.8,96.805,0.025001,-0.974901,-0.0548168,-0.0169212,-0.0294529,0.00401007,0.0137716,0.542635,-0.286201,1.17817,-10.9844,0.119141,0.296406,0.542635,-0.286201,10.9719
2595,173.268,88.3964,-126.807,-0.349216,-0.621636,0.357022,-0.60345,-0.704283,-0.0808135,-0.060976,-1.18457,-0.368678,0.542739,32.8,96.78,0.025001,-0.993892,-0.11092,-0.0388236,-0.0294375,0.00133774,0.0114751,-0.0141512,-0.658311,1.18327,-10.9745,-0.588122,0.378533,-0.0141512,-0.658311,10.977
2595.02,173.268,88.3964,-126.807,-0.349216,-0.621636,0.357022,-0.60345,-0.704283,-0.0808135,-0.060976,-1.18457,-0.368678,0.542739,32.8,96.78,0.025001,-0.993892,-0.11092,-0.0388236,-0.0294375,0.00133774,0.0114751,-0.0141512,-0.658311,1.18327,-10.9745,-0.588122,0.378533,-0.0141512,-0.658311,10.977
2595.05,-174.988,88.3811,-117.078,-0.336712,-0.626941,0.347876,-0.61037,-0.700222,-0.100816,-0.0713218,-1.13987,0.065719,0.534546,32.81,96.735,0.025001,-1.00354,-0.144001,-0.0573218,-0.0300007,0.00387023,0.0119323,0.371615,-0.415161,1.13089,-10.9297,-0.180658,0.408589,0.371615,-0.415161,10.9246
2595.07,-168.885,88.3489,-111.976,-0.330381,-0.629477,0.343363,-0.613767,-0.692708,-0.0985841,-0.0717324,-1.1997,0.0850815,0.284814,32.8,96.707,0.025,-0.995051,-0.149619,-0.0607111,-0.0307302,0.00331021,0.00615969,0.260632,-0.185515,1.19386,-10.9894,-0.176646,0.179195,0.260632,-0.185515,10.9876
2595.1,-168.885,88.3489,-111.976,-0.330381,-0.629477,0.343363,-0.613767,-0.692708,-0.0985841,-0.0717324,-1.1997,0.0850815,0.284814,32.8,96.707,0.025,-0.995051,-0.149619,-0.0607111,-0.0307302,0.00331021,0.00615969,0.260632,-0.185515,1.19386,-10.9894,-0.176646,0.179195,0.260632,-0.185515,10.9876
2595.13,-158.051,88.2339,-103.091,-0.317969,-0.634339,0.334526,-0.620163,-0.675934,-0.0910476,-0.0672364,-1.20914,-0.0260775,0.245707,32.8075,96.694,0.025,-0.958132,-0.140169,-0.059699,-0.0297527,0.00499906,0.00741694,0.154275,-0.20222,1.20763,-10.9982,-0.320098,0.177334,0.154275,-0.20222,11.0014
2595.15,-158.051,88.2339,-103.091,-0.317969,-0.634339,0.334526,-0.620163,-0.675934,-0.0910476,-0.0672364,-1.20914,-0.0260775,0.245707,32.8075,96.694,0.025,-0.958132,-0.140169,-0.059699,-0.0297527,0.00499906,0.00741694,0.154275,-0.20222,1.20763,-10.9982,-0.320098,0.177334,0.154275,-0.20222,11.0014
2595.18,-149.872,88.1054,-96.776,-0.30623,-0.638885,0.325766,-0.62604,-0.635935,-0.078804,-0.0519286,-1.09541,0.191765,0.328953,32.81,96.661,0.024999,-0.912905,-0.114819,-0.0360008,-0.0296044,0.0064271,0.00835729,0.382086,-0.129782,1.08724,-10.8838,-0.129759,0.29075,0.382086,-0.129782,10.881
2595.2,-149.872,88.1054,-96.776,-0.30623,-0.638885,0.325766,-0.62604,-0.635935,-0.078804,-0.0519286,-1.09541,0.191765,0.328953,32.81,96.661,0.024999,-0.912905,-0.114819,-0.0360008,-0.0296044,0.0064271,0.00835729,0.382086,-0.129782,1.08724,-10.8838,-0.129759,0.29075,0.382086,-0.129782,10.881
2595.23,-144.562,88.0291,-93.2619,-0.295397,-0.64321,0.316688,-0.631451,-0.623524,-0.0512239,-0.0161238,-1.19152,0.183345,0.0507169,32.81,96.649,0.024999,-0.888095,-0.0824646,0.0048647,-0.0284059,0.00673704,0.00532748,0.208096,0.0987505,1.18442,-10.9795,-0.152935,0.0315512,0.208096,0.0987505,10.9782
2595.25,-142.624,88.0233,-92.1961,-0.290354,-0.645256,0.31201,-0.634026,-0.603736,-0.0455181,-0.00224432,-1.10213,0.225759,0.35667,32.805,96.612,0.025001,-0.866946,-0.0711218,0.0319737,-0.0282929,0.00601837,0.00835842,0.431335,-0.108118,1.09323,-10.8901,-0.111817,0.343724,0.431335,-0.108118,10.887
2595.28,-142.624,88.0233,-92.1961,-0.290354,-0.645256,0.31201,-0.634026,-0.603736,-0.0455181,-0.00224432,-1.10213,0.225759,0.35667,32.805,96.612,0.025001,-0.866946,-0.0711218,0.0319737,-0.0282929,0.00601837,0.00835842,0.431335,-0.108118,1.09323,-10.8901,-0.111817,0.343724,0.431335,-0.108118,10.887
2595.3,-139.494,88.0737,-90.7573,-0.280952,-0.649067,0.302476,-0.638973,-0.579736,-0.0277089,0.0323737,-1.14403,0.236833,0.0128085,32.81,96.588,0.024999,-0.827397,-0.053038,0.0758356,-0.0289602,0.0062845,0.00343647,0.215613,0.17146,1.13542,-10.9322,-0.0923733,0.00845692,0.215613,0.17146,10.9292
2595.33,-139.494,88.0737,-90.7573,-0.280952,-0.649067,0.302476,-0.638973,-0.579736,-0.0277089,0.0323737,-1.14403,0.236833,0.0128085,32.81,96.588,0.024999,-0.827397,-0.053038,0.0758356,-0.0289602,0.0062845,0.00343647,0.215613,0.17146,1.13542,-10.9322,-0.0923733,0.00845692,0.215613,0.17146,10.9292
2595.35,-138.054,88.2063,-90.9385,-0.272505,-0.652685,0.29265,-0.643506,-0.5596,-0.0105245,0.0571407,-1.12979,-0.0785293,0.103389,32.805,96.551,0.025001,-0.794179,-0.0242748,0.117585,-0.027655,0.005965,0.00543765,0.0391496,-0.105532,1.13164,-10.9187,-0.385058,0.0983678,0.0391496,-0.105532,10.9254
2595.38,-137.994,88.299,-91.6629,-0.268611,-0.65443,0.287665,-0.645615,-0.543988,0.000357504,0.067844,-0.977165,-0.0257774,0.435326,32.8075,96.551,0.025,-0.78024,-0.00862904,0.133483,-0.0269865,0.00441803,0.00584034,0.303503,-0.313271,0.977124,-10.7666,-0.316412,0.426889,0.303503,-0.313271,10.7709
2595.4,-137.994,88.299,-91.6629,-0.268611,-0.65443,0.287665,-0.645615,-0.543988,0.000357504,0.067844,-0.977165,-0.0257774,0.435326,32.8075,96.551,0.025,-0.78024,-0.00862904,0.133483,-0.0269865,0.00441803,0.00584034,0.303503,-0.313271,0.977124,-10.7666,-0.316412,0.426889,0.303503,-0.313271,10.7709
2595.43,-139.346,88.5257,-94.5466,-0.261319,-0.657824,0.277541,-0.649578,-0.521005,0.0212616,0.0851926,-1.12757,0.110771,0.082182,32.8075,96.485,0.025001,-0.751893,0.0147983,0.161305,-0.0273349,0.00400603,0.00397032,0.158351,0.0395725,1.12419,-10.9181,-0.140462,0.0622037,0.158351,0.0395725,10.9179
2595.45,-139.346,88.5257,-94.5466,-0.261319,-0.657824,0.277541,-0.649578,-0.521005,0.0212616,0.0851926,-1.12757,0.110771,0.082182,32.8075,96.485,0.025001,-0.751893,0.0147983,0.161305,-0.0273349,0.00400603,0.00397032,0.158351,0.0395725,1.12419,-10.9181,-0.140462,0.0622037,0.158351,0.0395725,10.9179
2595.48,-144.778,88.7575,-101.462,-0.254532,-0.661338,0.267375,-0.652959,-0.521213,0.034185,0.0850274,-1.00858,-0.548843,0.234376,32.8025,96.461,0.025,-0.735747,0.0464478,0.164652,-0.0249819,0.00149771,0.00789053,-0.18803,-0.547434,1.019,-10.8,-0.756986,0.192174,-0.18803,-0.547434,10.8127
2595.5,-144.778,88.7575,-101.462,-0.254532,-0.661338,0.267375,-0.652959,-0.521213,0.034185,0.0850274,-1.00858,-0.548843,0.234376,32.8025,96.461,0.025,-0.735747,0.0464478,0.164652,-0.0249819,0.00149771,0.00789053,-0.18803,-0.547434,1.019,-10.8,-0.756986,0.192174,-0.18803,-0.547434,10.8127
2595.53,-151.608,88.9349,-109.763,-0.247519,-0.664738,0.257487,-0.656169,-0.521066,0.0181377,0.0722817,-1.06873,0.379347,0.034783,32.8075,96.424,0.025,-0.738169,0.0283799,0.139836,-0.023815,0.00289052,0.0137229,0.296404,0.268805,1.06169,-10.8608,0.208015,-0.0267749,0.296404,0.268805,10.8554
2595.56,-154.562,89.0103,-113.472,-0.24375,-0.666353,0.252536,-0.657864,-0.528691,0.00832696,0.0595598,-0.977779,0.269808,0.593748,32.805,96.424,0.024999,-0.752031,0.0167561,0.130376,-0.0233636,-0.000573786,0.014114,0.640015,-0.179661,0.969271,-10.7701,0.114605,0.526354,0.640015,-0.179661,10.763
2595.58,-154.562,89.0103,-113.472,-0.24375,-0.666353,0.252536,-0.657864,-0.528691,0.00832696,0.0595598,-0.977779,0.269808,0.593748,32.805,96.424,0.024999,-0.752031,0.0167561,0.130376,-0.0233636,-0.000573786,0.014114,0.640015,-0.179661,0.969271,-10.7701,0.114605,0.526354,0.640015,-0.179661,10.763
2595.61,-159.752,89.1054,-120.166,-0.235883,-0.669539,0.242988,-0.661085,-0.520824,0.0193126,0.0285362,-0.995357,0.511321,-0.0177437,32.81,96.391,0.024999,-0.748481,0.0201393,0.0902655,-0.0243817,-0.0011753,0.00418672,0.326692,0.410727,0.988471,-10.7879,0.379081,-0.0946044,0.326692,0.410727,10.7822
2595.63,-159.752,89.1054,-120.166,-0.235883,-0.669539,0.242988,-0.661085,-0.520824,0.0193126,0.0285362,-0.995357,0.511321,-0.0177437,32.81,96.391,0.024999,-0.748481,0.0201393,0.0902655,-0.0243817,-0.0011753,0.00418672,0.326692,0.410727,0.988471,-10.7879,0.379081,-0.0946044,0.326692,0.410727,10.7822
2595.66,-163.821,89.0896,-125.751,-0.22737,-0.673012,0.233849,-0.663831,-0.539976,0.0169955,-0.0129768,-0.938598,0.18273,0.433149,32.805,96.354,0.025,-0.760513,0.0266262,0.0357208,-0.0232809,-0.00568313,0.00945723,0.467953,-0.119089,0.932101,-10.7311,0.0564218,0.342216,0.467953,-0.119089,10.7258
2595.68,-162.437,88.9897,-125.963,-0.217631,-0.67662,0.224926,-0.666506,-0.574024,0.00671526,-0.0443821,-0.913597,-0.10031,0.435695,32.81,96.329,0.025001,-0.803884,0.0109601,-0.0179236,-0.0220617,-0.00221855,0.0129506,0.306059,-0.33481,0.910374,-10.7058,-0.240102,0.334267,0.306059,-0.33481,10.7041
2595.71,-162.437,88.9897,-125.963,-0.217631,-0.67662,0.224926,-0.666506,-0.574024,0.00671526,-0.0443821,-0.913597,-0.10031,0.435695,32.81,96.329,0.025001,-0.803884,0.0109601,-0.0179236,-0.0220617,-0.00221855,0.0129506,0.306059,-0.33481,0.910374,-10.7058,-0.240102,0.334267,0.306059,-0.33481,10.7041
2595.73,-160.805,88.9273,-125.138,-0.212552,-0.678388,0.220527,-0.667817,-0.569512,0.00918078,-0.0478956,-0.850823,-0.133622,0.504304,32.8,96.313,0.024999,-0.803046,0.00742216,-0.0271268,-0.0235941,0.00446416,0.0065923,0.346817,-0.397372,0.847285,-10.6429,-0.283599,0.398749,0.346817,-0.397372,10.641
2595.76,-160.805,88.9273,-125.138,-0.212552,-0.678388,0.220527,-0.667817,-0.569512,0.00918078,-0.0478956,-0.850823,-0.133622,0.504304,32.8,96.313,0.024999,-0.803046,0.00742216,-0.0271268,-0.0235941,0.00446416,0.0065923,0.346817,-0.397372,0.847285,-10.6429,-0.283599,0.398749,0.346817,-0.397372,10.641
2595.78,-156.868,88.7755,-122.83,-0.202079,-0.681878,0.211823,-0.670327,-0.560122,0.00318968,-0.0643225,-0.897931,0.277795,0.657132,32.81,96.28,0.025,-0.804914,0.0063619,-0.0499832,-0.0224821,0.00356536,0.0112574,0.717559,-0.130141,0.885124,-10.6894,0.101926,0.543661,0.717559,-0.130141,10.6789
2595.81,-156.868,88.7755,-122.83,-0.202079,-0.681878,0.211823,-0.670327,-0.560122,0.00318968,-0.0643225,-0.897931,0.277795,0.657132,32.81,96.28,0.025,-0.804914,0.0063619,-0.0499832,-0.0224821,0.00356536,0.0112574,0.717559,-0.130141,0.885124,-10.6894,0.101926,0.543661,0.717559,-0.130141,10.6789
2595.83,-151.99,88.5978,-119.548,-0.19148,-0.685105,0.203552,-0.672705,-0.560095,-0.00741002,-0.0767798,-0.860115,0.0777051,0.428346,32.81,96.256,0.025,-0.794164,-0.00778878,-0.0683745,-0.0215585,0.00226395,0.01124,0.421688,-0.154367,0.853034,-10.6509,-0.130797,0.310153,0.421688,-0.154367,10.6468
2595.86,-147.082,88.3905,-116.232,-0.180639,-0.688169,0.195479,-0.674967,-0.552499,-0.006285,-0.0872247,-0.870061,0.162812,0.200467,32.8025,96.215,0.024999,-0.790328,-0.0140063,-0.084144,-0.0223202,0.00240134,0.00753581,0.276028,0.0502054,0.863127,-10.6599,-0.0839359,0.0788828,0.276028,0.0502054,10.6569
2595.88,-147.082,88.3905,-116.232,-0.180639,-0.688169,0.195479,-0.674967,-0.552499,-0.006285,-0.0872247,-0.870061,0.162812,0.200467,32.8025,96.215,0.024999,-0.790328,-0.0140063,-0.084144,-0.0223202,0.00240134,0.00753581,0.276028,0.0502054,0.863127,-10.6599,-0.0839359,0.0788828,0.276028,0.0502054,10.6569
2595.91,-145.026,88.2819,-114.978,-0.175156,-0.689674,0.191398,-0.676045,-0.557258,-0.00906517,-0.0833911,-0.906388,0.358043,0.477804,32.8,96.202,0.025001,-0.797804,-0.0118394,-0.0827242,-0.0216795,0.00400496,0.00894358,0.614945,0.0861199,0.8902,-10.6957,0.0918665,0.353808,0.614945,0.0861199,10.6839
2595.93,-145.026,88.2819,-114.978,-0.175156,-0.689674,0.191398,-0.676045,-0.557258,-0.00906517,-0.0833911,-0.906388,0.358043,0.477804,32.8,96.202,0.025001,-0.797804,-0.0118394,-0.0827242,-0.0216795,0.00400496,0.00894358,0.614945,0.0861199,0.8902,-10.6957,0.0918665,0.353808,0.614945,0.0861199,10.6839
2595.96,-141.165,88.0912,-112.708,-0.164367,-0.692396,0.183194,-0.678242,-0.548527,-0.0139617,-0.0729602,-0.866094,-0.00918954,0.136541,32.805,96.165,0.025,-0.789,-0.0241415,-0.0659947,-0.0210638,0.00351795,0.00972789,0.138113,-0.0550695,0.86414,-10.6544,-0.310089,0.0106247,0.138113,-0.0550695,10.6579
2595.98,-138.353,87.9379,-111.449,-0.15403,-0.694876,0.174899,-0.680317,-0.529447,-0.00849572,-0.0523218,-0.815844,-0.0600951,0.275158,32.81,96.157,0.025,-0.766878,-0.0222544,-0.0404432,-0.0212047,0.00608802,0.00582405,0.240098,-0.158608,0.813708,-10.6032,-0.388069,0.146301,0.240098,-0.158608,10.6075
2596.01,-138.353,87.9379,-111.449,-0.15403,-0.694876,0.174899,-0.680317,-0.529447,-0.00849572,-0.0523218,-0.815844,-0.0600951,0.275158,32.81,96.157,0.025,-0.766878,-0.0222544,-0.0404432,-0.0212047,0.00608802,0.00582405,0.240098,-0.158608,0.813708,-10.6032,-0.388069,0.146301,0.240098,-0.158608,10.6075
2596.04,-137.102,87.88,-110.964,-0.149024,-0.695996,0.170707,-0.681352,-0.532385,-0.0183826,-0.0453914,-0.863602,0.364959,0.277099,32.8,96.141,0.025,-0.760521,-0.026663,-0.0296891,-0.0200058,0.00417139,0.011085,0.432723,0.227109,0.846735,-10.6506,0.0266195,0.147463,0.432723,0.227109,10.6405
2596.06,-137.102,87.88,-110.964,-0.149024,-0.695996,0.170707,-0.681352,-0.532385,-0.0183826,-0.0453914,-0.863602,0.364959,0.277099,32.8,96.141,0.025,-0.760521,-0.026663,-0.0296891,-0.0200058,0.00417139,0.011085,0.432723,0.227109,0.846735,-10.6506,0.0266195,0.147463,0.432723,0.227109,10.6405
2596.09,-134.742,87.812,-110.103,-0.139447,-0.697937,0.162241,-0.683459,-0.51746,-0.0226229,-0.0216735,-0.783761,0.207103,0.289181,32.8,96.104,0.024999,-0.737492,-0.0383551,0.00243663,-0.0200978,0.00570502,0.00722542,0.370108,0.0887899,0.771969,-10.5704,-0.144064,0.160652,0.370108,0.0887899,10.5657
2596.11,-134.742,87.812,-110.103,-0.139447,-0.697937,0.162241,-0.683459,-0.51746,-0.0226229,-0.0216735,-0.783761,0.207103,0.289181,32.8,96.104,0.024999,-0.737492,-0.0383551,0.00243663,-0.0200978,0.00570502,0.00722542,0.370108,0.0887899,0.771969,-10.5704,-0.144064,0.160652,0.370108,0.0887899,10.5657
2596.14,-132.542,87.812,-109.372,-0.130398,-0.69952,0.153554,-0.68563,-0.509108,-0.0307954,-0.000170087,-0.812417,-0.0517652,0.307073,32.81,96.083,0.025001,-0.727951,-0.0465885,0.0351045,-0.0197458,0.00352344,0.00705522,0.282884,-0.145586,0.8098,-10.599,-0.404519,0.183043,0.282884,-0.145586,10.6035
2596.16,-130.659,87.8722,-108.97,-0.121624,-0.700887,0.144409,-0.687831,-0.517655,-0.0319549,0.0271295,-0.747986,0.26614,0.371224,32.8075,96.046,0.024999,-0.738641,-0.0499139,0.0703247,-0.0188972,0.00804322,0.00881018,0.461229,0.130979,0.733643,-10.535,-0.077774,0.253006,0.461229,0.130979,10.5274
2596.19,-130.659,87.8722,-108.97,-0.121624,-0.700887,0.144409,-0.687831,-0.517655,-0.0319549,0.0271295,-0.747986,0.26614,0.371224,32.8075,96.046,0.024999,-0.738641,-0.0499139,0.0703247,-0.0188972,0.00804322,0.00881018,0.461229,0.130979,0.733643,-10.535,-0.077774,0.253006,0.461229,0.130979,10.5274
2596.21,-129.897,87.9294,-108.942,-0.11744,-0.701478,0.139697,-0.688927,-0.507581,-0.0281582,0.0348482,-0.729455,0.132272,0.185262,32.81,96.034,0.025,-0.729018,-0.0503471,0.0865895,-0.0191834,0.00269164,0.00668125,0.237141,0.0773927,0.722286,-10.5168,-0.20241,0.0704,0.237141,0.0773927,10.516
2596.24,-129.897,87.9294,-108.942,-0.11744,-0.701478,0.139697,-0.688927,-0.507581,-0.0281582,0.0348482,-0.729455,0.132272,0.185262,32.81,96.034,0.025,-0.729018,-0.0503471,0.0865895,-0.0191834,0.00269164,0.00668125,0.237141,0.0773927,0.722286,-10.5168,-0.20241,0.0704,0.237141,0.0773927,10.516
2596.26,-129.166,88.0783,-109.637,-0.109577,-0.702587,0.130238,-0.690944,-0.493082,-0.0195652,0.0537225,-0.797625,0.278379,0.261894,32.81,96.01,0.025001,-0.703242,-0.038074,0.113859,-0.0188677,0.00337735,0.00623701,0.356655,0.195404,0.785433,-10.5859,-0.0309578,0.151519,0.356655,0.195404,10.5792
2596.29,-131.032,88.2517,-112.838,-0.102628,-0.703839,0.120941,-0.692425,-0.445926,0.0121954,0.0714938,-0.705692,0.212237,0.229815,32.81,95.985,0.024999,-0.651546,0.00402605,0.137429,-0.0192022,0.00580601,0.00385623,0.298641,0.146013,0.696673,-10.4949,-0.0631714,0.11383,0.298641,0.146013,10.4904
2596.31,-131.032,88.2517,-112.838,-0.102628,-0.703839,0.120941,-0.692425,-0.445926,0.0121954,0.0714938,-0.705692,0.212237,0.229815,32.81,95.985,0.024999,-0.651546,0.00402605,0.137429,-0.0192022,0.00580601,0.00385623,0.298641,0.146013,0.696673,-10.4949,-0.0631714,0.11383,0.298641,0.146013,10.4904
2596.34,-137.549,88.414,-120.589,-0.0966647,-0.705477,0.111861,-0.693141,-0.419512,0.0475706,0.0883939,-0.781351,0.39902,0.190322,32.805,95.944,0.025,-0.602862,0.0560578,0.162192,-0.0188235,0.00168577,0.00247255,0.314273,0.340631,0.768864,-10.5713,0.165669,0.0523768,0.314273,0.340631,10.5626
2596.36,-137.549,88.414,-120.589,-0.0966647,-0.705477,0.111861,-0.693141,-0.419512,0.0475706,0.0883939,-0.781351,0.39902,0.190322,32.805,95.944,0.025,-0.602862,0.0560578,0.162192,-0.0188235,0.00168577,0.00247255,0.314273,0.340631,0.768864,-10.5713,0.165669,0.0523768,0.314273,0.340631,10.5626
2596.39,-142.592,88.483,-126.219,-0.093994,-0.706391,0.107371,-0.693289,-0.408337,0.0561787,0.0939137,-0.79198,-0.0795287,0.0947106,32.81,95.936,0.024999,-0.584303,0.0706939,0.174085,-0.0182732,0.00341552,0.00586156,0.0851099,-0.0902615,0.79192,-10.5823,-0.288734,-0.0585093,0.0851099,-0.0902615,10.5857
2596.41,-142.592,88.483,-126.219,-0.093994,-0.706391,0.107371,-0.693289,-0.408337,0.0561787,0.0939137,-0.79198,-0.0795287,0.0947106,32.81,95.936,0.024999,-0.584303,0.0706939,0.174085,-0.0182732,0.00341552,0.00586156,0.0851099,-0.0902615,0.79192,-10.5823,-0.288734,-0.0585093,0.0851099,-0.0902615,10.5857
2596.44,-155.636,88.5508,-140.377,-0.0891333,-0.708375,0.0986088,-0.693207,-0.391629,0.0790719,0.0977523,-0.616153,-0.0905809,0.351016,32.8,95.907,0.025,-0.552119,0.10274,0.182069,-0.0178228,0.00179992,0.00237526,0.328936,-0.173367,0.61058,-10.4068,-0.248538,0.160236,0.328936,-0.173367,10.4043
2596.46,-169.143,88.4944,-154.986,-0.0842697,-0.710496,0.0899917,-0.692817,-0.390118,0.07869,0.0880483,-0.712207,-0.0799847,0.358485,32.81,95.874,0.024999,-0.546775,0.112938,0.168973,-0.0164527,-0.00191305,0.0102983,0.346314,-0.16173,0.704314,-10.5026,-0.188798,0.125284,0.346314,-0.16173,10.4981
2596.49,-169.143,88.4944,-154.986,-0.0842697,-0.710496,0.0899917,-0.692817,-0.390118,0.07869,0.0880483,-0.712207,-0.0799847,0.358485,32.81,95.874,0.024999,-0.546775,0.112938,0.168973,-0.0164527,-0.00191305,0.0102983,0.346314,-0.16173,0.704314,-10.5026,-0.188798,0.125284,0.346314,-0.16173,10.4981
2596.51,-179.721,88.3435,-166.677,-0.0790974,-0.712607,0.0815182,-0.692308,-0.393542,0.0777008,0.0742932,-0.57952,0.199004,0.497069,32.81,95.862,0.025001,-0.555644,0.112605,0.149177,-0.01537,-0.00121217,0.0113187,0.545689,0.0817619,0.56397,-10.3692,0.133764,0.221579,0.545689,0.0817619,10.3577
2596.54,-179.721,88.3435,-166.677,-0.0790974,-0.712607,0.0815182,-0.692308,-0.393542,0.0777008,0.0742932,-0.57952,0.199004,0.497069,32.81,95.862,0.025001,-0.555644,0.112605,0.149177,-0.01537,-0.00121217,0.0113187,0.545689,0.0817619,0.56397,-10.3692,0.133764,0.221579,0.545689,0.0817619,10.3577
2596.56,176.374,88.2407,-171.143,-0.0763766,-0.713677,0.0773675,-0.691987,-0.398504,0.0881187,0.0576321,-0.649092,0.00305177,0.235226,32.81,95.85,0.025,-0.557652,0.117728,0.134762,-0.017128,-0.00481841,0.00427754,0.250105,-0.0491213,0.641636,-10.4382,-0.0432499,-0.0618918,0.250105,-0.0491213,10.4354
2596.59,176.374,88.2407,-171.143,-0.0763766,-0.713677,0.0773675,-0.691987,-0.398504,0.0881187,0.0576321,-0.649092,0.00305177,0.235226,32.81,95.85,0.025,-0.557652,0.117728,0.134762,-0.017128,-0.00481841,0.00427754,0.250105,-0.0491213,0.641636,-10.4382,-0.0432499,-0.0618918,0.250105,-0.0491213,10.4354
2596.62,170.981,88.0115,-177.672,-0.070608,-0.715786,0.0691758,-0.691288,-0.401638,0.084545,0.051228,-0.632095,0.0846055,0.643862,32.81,95.813,0.025001,-0.565745,0.117806,0.11379,-0.0160892,0.0015654,0.00828368,0.669201,-0.0471025,0.609271,-10.4199,0.0708035,0.3043,0.669201,-0.0471025,10.403
2596.64,167.621,87.7746,177.819,-0.0645699,-0.717797,0.0610897,-0.690555,-0.403221,0.0817927,0.0359464,-0.519372,-0.100452,0.455751,32.8,95.796,0.025,-0.570214,0.115888,0.0967422,-0.0147907,-0.00184838,0.00792545,0.450129,-0.183801,0.501147,-10.3057,-0.0859767,0.0757127,0.450129,-0.183801,10.2949
2596.67,167.621,87.7746,177.819,-0.0645699,-0.717797,0.0610897,-0.690555,-0.403221,0.0817927,0.0359464,-0.519372,-0.100452,0.455751,32.8,95.796,0.025,-0.570214,0.115888,0.0967422,-0.0147907,-0.00184838,0.00792545,0.450129,-0.183801,0.501147,-10.3057,-0.0859767,0.0757127,0.450129,-0.183801,10.2949
2596.69,166.768,87.6572,176.387,-0.0613928,-0.71877,0.0571579,-0.690169,-0.404207,0.0821996,0.0254132,-0.572975,0.0796912,0.307737,32.8075,95.788,0.025,-0.574555,0.109263,0.0806556,-0.0151059,-0.00211873,0.00772544,0.339283,0.0218439,0.560146,-10.3585,0.10492,-0.0918367,0.339283,0.0218439,10.3539
2596.72,166.768,87.6572,176.387,-0.0613928,-0.71877,0.0571579,-0.690169,-0.404207,0.0821996,0.0254132,-0.572975,0.0796912,0.307737,32.8075,95.788,0.025,-0.574555,0.109263,0.0806556,-0.0151059,-0.00211873,0.00772544,0.339283,0.0218439,0.560146,-10.3585,0.10492,-0.0918367,0.339283,0.0218439,10.3539
2596.74,165.961,87.4233,174.387,-0.054646,-0.720685,0.0492191,-0.689351,-0.427397,0.0842617,0.0157837,-0.627228,0.0255136,0.392045,32.81,95.764,0.025,-0.601342,0.111602,0.0657755,-0.0152797,0.000254264,0.00482195,0.41853,-0.038953,0.609164,-10.4111,0.068583,-0.0461739,0.41853,-0.038953,10.4029
2596.77,165.889,87.1549,173.117,-0.0477552,-0.722744,0.0413588,-0.688222,-0.429436,0.0972404,0.00692119,-0.580446,-0.310552,0.0937751,32.8075,95.751,0.025,-0.596188,0.130728,0.053023,-0.0146312,-0.00201554,0.00739328,0.0817443,-0.326868,0.573262,-10.3621,-0.252292,-0.38885,0.0817443,-0.326868,10.367
2596.79,165.889,87.1549,173.117,-0.0477552,-0.722744,0.0413588,-0.688222,-0.429436,0.0972404,0.00692119,-0.580446,-0.310552,0.0937751,32.8075,95.751,0.025,-0.596188,0.130728,0.053023,-0.0146312,-0.00201554,0.00739328,0.0817443,-0.326868,0.573262,-10.3621,-0.252292,-0.38885,0.0817443,-0.326868,10.367
2596.82,166.485,86.8466,172.506,-0.0406698,-0.724994,0.0335753,-0.686733,-0.41781,0.110361,0.000735512,-0.607456,0.0113887,0.276954,32.81,95.714,0.025,-0.597404,0.152948,0.0434527,-0.0144516,0.000735218,0.00824982,0.308711,-0.0254377,0.591512,-10.3864,0.0816562,-0.257211,0.308711,-0.0254377,10.3853
2596.84,166.485,86.8466,172.506,-0.0406698,-0.724994,0.0335753,-0.686733,-0.41781,0.110361,0.000735512,-0.607456,0.0113887,0.276954,32.81,95.714,0.025,-0.597404,0.152948,0.0434527,-0.0144516,0.000735218,0.00824982,0.308711,-0.0254377,0.591512,-10.3864,0.0816562,-0.257211,0.308711,-0.0254377,10.3853
2596.87,166.846,86.6889,172.273,-0.0371671,-0.726111,0.0297626,-0.685927,-0.416827,0.112164,0.000813648,-0.614315,-0.114325,0.071982,32.805,95.702,0.024999,-0.588742,0.152876,0.0417502,-0.0136914,0.000859107,0.00666252,0.0952567,-0.128663,0.608282,-10.3917,-0.0382674,-0.488571,0.0952567,-0.128663,10.402
2596.89,166.846,86.6889,172.273,-0.0371671,-0.726111,0.0297626,-0.685927,-0.416827,0.112164,0.000813648,-0.614315,-0.114325,0.071982,32.805,95.702,0.024999,-0.588742,0.152876,0.0417502,-0.0136914,0.000859107,0.00666252,0.0952567,-0.128663,0.608282,-10.3917,-0.0382674,-0.488571,0.0952567,-0.128663,10.402
2596.92,167.471,86.3567,171.75,-0.0304367,-0.728366,0.0223294,-0.684148,-0.390729,0.115264,0.00512929,-0.538045,0.160288,0.206634,32.8,95.686,0.025001,-0.564795,0.155716,0.047484,-0.0138026,0.00139008,0.00872356,0.251034,0.137088,0.525424,-10.312,0.249592,-0.409266,0.251034,0.137088,10.3192
2596.94,167.906,86.0272,171.064,-0.023946,-0.730512,0.0149998,-0.682315,-0.381443,0.116032,0.0115717,-0.639378,0.542,0.291014,32.805,95.649,0.025,-0.551843,0.157692,0.0537893,-0.0140094,0.00353276,0.00623603,0.363269,0.515966,0.623757,-10.4096,0.647404,-0.379296,0.363269,0.515966,10.4175
2596.97,167.906,86.0272,171.064,-0.023946,-0.730512,0.0149998,-0.682315,-0.381443,0.116032,0.0115717,-0.639378,0.542,0.291014,32.805,95.649,0.025,-0.551843,0.157692,0.0537893,-0.0140094,0.00353276,0.00623603,0.363269,0.515966,0.623757,-10.4096,0.647404,-0.379296,0.363269,0.515966,10.4175
2596.99,168.073,85.6573,170.161,-0.0179324,-0.732791,0.00781576,-0.680172,-0.36716,0.128495,0.0195692,-0.479015,0.00222737,0.297217,32.8,95.637,0.025,-0.526036,0.180235,0.0703362,-0.0124484,0.000409982,0.00986641,0.331768,-0.0159255,0.455493,-10.2446,0.128955,-0.433488,0.331768,-0.0159255,10.2492
2597.02,168.073,85.6573,170.161,-0.0179324,-0.732791,0.00781576,-0.680172,-0.36716,0.128495,0.0195692,-0.479015,0.00222737,0.297217,32.8,95.637,0.025,-0.526036,0.180235,0.0703362,-0.0124484,0.000409982,0.00986641,0.331768,-0.0159255,0.455493,-10.2446,0.128955,-0.433488,0.331768,-0.0159255,10.2492
2597.04,168.112,85.4652,169.681,-0.0150566,-0.733939,0.00428115,-0.679035,-0.36214,0.131128,0.0212558,-0.482413,-0.193193,0.352524,32.8075,95.637,0.025,-0.515453,0.183252,0.0714483,-0.0135052,-0.00109898,0.00640761,0.383261,-0.21038,0.450744,-10.2455,-0.0544777,-0.409307,0.383261,-0.21038,10.2445
2597.07,167.985,85.07,168.563,-0.00974172,-0.736221,-0.00261962,-0.676666,-0.340697,0.129411,0.0373129,-0.55554,0.290392,0.314233,32.81,95.604,0.024999,-0.48643,0.186345,0.0893225,-0.012389,0.00112345,0.00964682,0.362935,0.277464,0.531965,-10.3131,0.457288,-0.510719,0.362935,0.277464,10.3257
2597.1,167.985,85.07,168.563,-0.00974172,-0.736221,-0.00261962,-0.676666,-0.340697,0.129411,0.0373129,-0.55554,0.290392,0.314233,32.81,95.604,0.024999,-0.48643,0.186345,0.0893225,-0.012389,0.00112345,0.00964682,0.362935,0.277464,0.531965,-10.3131,0.457288,-0.510719,0.362935,0.277464,10.3257
2597.12,167.151,84.6815,166.758,-0.00498056,-0.738301,-0.00983037,-0.674381,-0.340965,0.11977,0.0683914,-0.420757,0.110667,0.438752,32.8,95.563,0.024999,-0.483017,0.170401,0.130245,-0.0124353,0.00513132,0.00880093,0.47432,0.105388,0.381708,-10.1723,0.318619,-0.444912,0.47432,0.105388,10.1755
2597.15,167.151,84.6815,166.758,-0.00498056,-0.738301,-0.00983037,-0.674381,-0.340965,0.11977,0.0683914,-0.420757,0.110667,0.438752,32.8,95.563,0.024999,-0.483017,0.170401,0.130245,-0.0124353,0.00513132,0.00880093,0.47432,0.105388,0.381708,-10.1723,0.318619,-0.444912,0.47432,0.105388,10.1755
2597.17,165.744,84.324,164.376,-0.000593431,-0.740016,-0.0174585,-0.672362,-0.341879,0.102735,0.0788116,-0.510165,0.0760421,0.25129,32.8025,95.563,0.024999,-0.487599,0.143802,0.153475,-0.0121234,-0.000117922,0.00932353,0.297253,0.0698632,0.485754,-10.2559,0.336919,-0.681555,0.297253,0.0698632,10.2795
2597.2,165.744,84.324,164.376,-0.000593431,-0.740016,-0.0174585,-0.672362,-0.341879,0.102735,0.0788116,-0.510165,0.0760421,0.25129,32.8025,95.563,0.024999,-0.487599,0.143802,0.153475,-0.0121234,-0.000117922,0.00932353,0.297253,0.0698632,0.485754,-10.2559,0.336919,-0.681555,0.297253,0.0698632,10.2795
2597.22,165.005,84.1591,163.151,0.00154689,-0.74074,-0.0213133,-0.671451,-0.348459,0.0883509,0.080404,-0.448604,-0.338932,0.42428,32.81,95.554,0.025001,-0.486146,0.130544,0.158335,-0.0110006,0.000147675,0.011136,0.476597,-0.336156,0.394954,-10.1915,-0.0500373,-0.529609,0.476597,-0.336156,10.1887
2597.25,163.587,83.8624,160.728,0.00601404,-0.741908,-0.0292124,-0.669838,-0.361402,0.0716238,0.0800831,-0.373859,0.0358206,0.420714,32.805,95.518,0.025,-0.508624,0.104874,0.15802,-0.0109373,-0.00113552,0.00924552,0.454628,0.0460879,0.330519,-10.1115,0.381431,-0.567738,0.454628,0.0460879,10.1243
2597.27,163.587,83.8624,160.728,0.00601404,-0.741908,-0.0292124,-0.669838,-0.361402,0.0716238,0.0800831,-0.373859,0.0358206,0.420714,32.805,95.518,0.025,-0.508624,0.104874,0.15802,-0.0109373,-0.00113552,0.00924552,0.454628,0.0460879,0.330519,-10.1115,0.381431,-0.567738,0.454628,0.0460879,10.1243
2597.3,162.219,83.617,158.305,0.0108126,-0.742653,-0.0374032,-0.668544,-0.382134,0.0486972,0.0777007,-0.424977,0.0358795,0.64592,32.8,95.501,0.025,-0.536725,0.0763913,0.153902,-0.0102639,0.00084928,0.0112258,0.683491,0.0665648,0.357093,-10.158,0.438382,-0.365781,0.683491,0.0665648,10.1508
2597.32,162.219,83.617,158.305,0.0108126,-0.742653,-0.0374032,-0.668544,-0.382134,0.0486972,0.0777007,-0.424977,0.0358795,0.64592,32.8,95.501,0.025,-0.536725,0.0763913,0.153902,-0.0102639,0.00084928,0.0112258,0.683491,0.0665648,0.357093,-10.158,0.438382,-0.365781,0.683491,0.0665648,10.1508
2597.35,161.487,83.5134,157.034,0.0132611,-0.742854,-0.0415944,-0.668028,-0.384366,0.0437556,0.0845734,-0.419409,-0.0191168,0.16912,32.8075,95.489,0.024999,-0.539951,0.0580899,0.156504,-0.0102986,0.00327631,0.00622212,0.214033,-0.0206407,0.39829,-10.1505,0.412587,-0.849594,0.214033,-0.0206407,10.192
2597.37,159.968,83.33,154.424,0.0181976,-0.743003,-0.0500845,-0.667163,-0.386729,0.0222648,0.0791242,-0.361109,0.195525,0.431203,32.8,95.477,0.025,-0.548021,0.03435,0.158291,-0.0102015,0.000969432,0.00900402,0.447764,0.22261,0.323292,-10.0886,0.686625,-0.594886,0.447764,0.22261,10.117
2597.4,159.968,83.33,154.424,0.0181976,-0.743003,-0.0500845,-0.667163,-0.386729,0.0222648,0.0791242,-0.361109,0.195525,0.431203,32.8,95.477,0.025,-0.548021,0.03435,0.158291,-0.0102015,0.000969432,0.00900402,0.447764,0.22261,0.323292,-10.0886,0.686625,-0.594886,0.447764,0.22261,10.117
2597.42,158.481,83.2351,151.795,0.0236223,-0.742527,-0.0587034,-0.66682,-0.426559,-0.0124755,0.0581949,-0.410566,-0.414919,0.325406,32.81,95.444,0.025001,-0.586054,-0.0163988,0.131238,-0.00932545,-0.003238,0.00893876,0.413367,-0.390716,0.350827,-10.1361,0.13034,-0.691284,0.413367,-0.390716,10.1446
2597.45,158.481,83.2351,151.795,0.0236223,-0.742527,-0.0587034,-0.66682,-0.426559,-0.0124755,0.0581949,-0.410566,-0.414919,0.325406,32.81,95.444,0.025001,-0.586054,-0.0163988,0.131238,-0.00932545,-0.003238,0.00893876,0.413367,-0.390716,0.350827,-10.1361,0.13034,-0.691284,0.413367,-0.390716,10.1446
2597.47,157.309,83.2522,149.376,0.0301571,-0.741382,-0.0674986,-0.666999,-0.451038,-0.0466107,0.025355,-0.268193,-0.290813,0.574197,32.8075,95.431,0.025,-0.63542,-0.0573958,0.0848165,-0.00880469,-0.00316286,0.0122735,0.633807,-0.219223,0.19087,-9.9941,0.29539,-0.416068,0.633807,-0.219223,9.98462
2597.5,157.309,83.2522,149.376,0.0301571,-0.741382,-0.0674986,-0.666999,-0.451038,-0.0466107,0.025355,-0.268193,-0.290813,0.574197,32.8075,95.431,0.025,-0.63542,-0.0573958,0.0848165,-0.00880469,-0.00316286,0.0122735,0.633807,-0.219223,0.19087,-9.9941,0.29539,-0.416068,0.633807,-0.219223,9.98462
2597.52,156.747,83.3067,148.142,0.0338626,-0.740508,-0.0720544,-0.667315,-0.475637,-0.0607002,0.0153127,-0.370879,0.0135204,0.402144,32.81,95.419,0.025,-0.671769,-0.0866487,0.0686307,-0.00898893,-0.00126178,0.0104653,0.433217,0.0573719,0.329371,-10.0979,0.616028,-0.567415,0.433217,0.0573719,10.1231
2597.55,155.599,83.481,145.617,0.0416841,-0.738316,-0.0811479,-0.668256,-0.49033,-0.0899749,-0.00526106,-0.392948,-0.109438,0.396885,32.81,95.407,0.025001,-0.690871,-0.125935,0.0422278,-0.00893939,-0.00199373,0.0112248,0.448181,-0.056379,0.346204,-10.1234,0.518481,-0.520759,0.448181,-0.056379,10.1399
2597.57,155.599,83.481,145.617,0.0416841,-0.738316,-0.0811479,-0.668256,-0.49033,-0.0899749,-0.00526106,-0.392948,-0.109438,0.396885,32.81,95.407,0.025001,-0.690871,-0.125935,0.0422278,-0.00893939,-0.00199373,0.0112248,0.448181,-0.056379,0.346204,-10.1234,0.518481,-0.520759,0.448181,-0.056379,10.1399
2597.6,154.406,83.719,143.011,0.0499719,-0.735661,-0.0902128,-0.669453,-0.500599,-0.100431,-0.017436,-0.337193,-0.128939,0.324308,32.81,95.395,0.025,-0.708883,-0.145297,0.0204956,-0.00957369,0.00078216,0.00956216,0.374838,-0.0773879,0.298341,-10.0721,0.515729,-0.531549,0.374838,-0.0773879,10.0921
2597.63,154.406,83.719,143.011,0.0499719,-0.735661,-0.0902128,-0.669453,-0.500599,-0.100431,-0.017436,-0.337193,-0.128939,0.324308,32.81,95.395,0.025,-0.708883,-0.145297,0.0204956,-0.00957369,0.00078216,0.00956216,0.374838,-0.0773879,0.298341,-10.0721,0.515729,-0.531549,0.374838,-0.0773879,10.0921
2597.65,153.381,83.9856,140.578,0.0585167,-0.732834,-0.0989469,-0.670626,-0.487434,-0.0930015,-0.0370812,-0.432559,-0.00707223,0.233864,32.805,95.37,0.025001,-0.701418,-0.141202,-0.00581776,-0.00947398,-0.00076493,0.00659435,0.269225,0.0250782,0.410778,-10.1724,0.644581,-0.558844,0.269225,0.0250782,10.2045
2597.68,153.023,84.1095,139.54,0.0627295,-0.731511,-0.103066,-0.67107,-0.469209,-0.0755796,-0.0349158,-0.424637,-0.0541722,0.0242351,32.8,95.341,0.024999,-0.677581,-0.124503,-0.0101247,-0.0103168,0.00271003,0.00160897,0.0747833,-0.066669,0.416895,-10.1667,0.598055,-0.740515,0.0747833,-0.066669,10.2106
2597.7,153.023,84.1095,139.54,0.0627295,-0.731511,-0.103066,-0.67107,-0.469209,-0.0755796,-0.0349158,-0.424637,-0.0541722,0.0242351,32.8,95.341,0.024999,-0.677581,-0.124503,-0.0101247,-0.0103168,0.00271003,0.00160897,0.0747833,-0.066669,0.416895,-10.1667,0.598055,-0.740515,0.0747833,-0.066669,10.2106
2597.73,152.633,84.3161,137.832,0.070976,-0.729154,-0.11096,-0.671554,-0.45814,-0.0529607,-0.0353337,-0.361516,-0.23418,0.105506,32.8075,95.341,0.025,-0.654115,-0.0902756,-0.0140661,-0.00984596,0.00102059,0.00416216,0.1926,-0.215382,0.336424,-10.1071,0.416968,-0.613411,0.1926,-0.215382,10.1302
2597.75,152.633,84.3161,137.832,0.070976,-0.729154,-0.11096,-0.671554,-0.45814,-0.0529607,-0.0353337,-0.361516,-0.23418,0.105506,32.8075,95.341,0.025,-0.654115,-0.0902756,-0.0140661,-0.00984596,0.00102059,0.00416216,0.1926,-0.215382,0.336424,-10.1071,0.416968,-0.613411,0.1926,-0.215382,10.1302
2597.78,152.693,84.4751,136.627,0.0789829,-0.727155,-0.118408,-0.671556,-0.426003,-0.0300562,-0.0378769,-0.40421,0.28388,0.177044,32.8,95.317,0.024999,-0.616904,-0.0543407,-0.0140279,-0.00899129,0.00170792,0.00470531,0.126423,0.303793,0.408712,-10.1525,0.931431,-0.508374,0.126423,0.303793,10.2025
2597.8,152.693,84.4751,136.627,0.0789829,-0.727155,-0.118408,-0.671556,-0.426003,-0.0300562,-0.0378769,-0.40421,0.28388,0.177044,32.8,95.317,0.024999,-0.616904,-0.0543407,-0.0140279,-0.00899129,0.00170792,0.00470531,0.126423,0.303793,0.408712,-10.1525,0.931431,-0.508374,0.126423,0.303793,10.2025
2597.83,153.023,84.5834,135.755,0.0865804,-0.725476,-0.12549,-0.671149,-0.410882,-0.0107938,-0.0320049,-0.297629,-0.119374,0.222894,32.8075,95.304,0.025,-0.588686,-0.0272741,-0.00603606,-0.00898528,0.00239621,0.00484748,0.272354,-0.0600804,0.273365,-10.0476,0.52568,-0.439387,0.272354,-0.0600804,10.0671
2597.85,153.31,84.6182,135.467,0.090207,-0.72477,-0.128867,-0.670793,-0.394408,-0.00198218,-0.0273311,-0.320201,0.0578969,0.217415,32.805,95.284,0.025001,-0.569198,-0.011628,-0.0025927,-0.00884382,0.00186303,0.00512095,0.215599,0.108467,0.308062,-10.0708,0.702109,-0.437384,0.215599,0.108467,10.1018
2597.88,153.31,84.6182,135.467,0.090207,-0.72477,-0.128867,-0.670793,-0.394408,-0.00198218,-0.0273311,-0.320201,0.0578969,0.217415,32.805,95.284,0.025001,-0.569198,-0.011628,-0.0025927,-0.00884382,0.00186303,0.00512095,0.215599,0.108467,0.308062,-10.0708,0.702109,-0.437384,0.215599,0.108467,10.1018
2597.9,154.1,84.635,135.146,0.0971375,-0.723675,-0.135457,-0.669709,-0.376701,0.0253811,-0.0179722,-0.364,0.174845,0.151278,32.81,95.272,0.025001,-0.543642,0.0241642,0.0122683,-0.00826996,0.00250847,0.00422019,0.116964,0.199604,0.363908,-10.1148,0.820697,-0.497869,0.116964,0.199604,10.1577
2597.93,154.1,84.635,135.146,0.0971375,-0.723675,-0.135457,-0.669709,-0.376701,0.0253811,-0.0179722,-0.364,0.174845,0.151278,32.81,95.272,0.025001,-0.543642,0.0241642,0.0122683,-0.00826996,0.00250847,0.00422019,0.116964,0.199604,0.363908,-10.1148,0.820697,-0.497869,0.116964,0.199604,10.1577
2597.95,155.139,84.5787,135.169,0.10336,-0.723062,-0.141575,-0.668172,-0.343827,0.0454532,-0.00341669,-0.297882,0.214195,0.249398,32.8,95.255,0.025001,-0.490809,0.0557795,0.0316051,-0.00814245,0.00346709,0.00661715,0.18668,0.274708,0.294107,-10.0478,0.866557,-0.40683,0.18668,0.274708,10.0879
2597.98,156.229,84.4497,135.29,0.109072,-0.722822,-0.147599,-0.666218,-0.327714,0.068013,0.0115685,-0.412441,0.0512823,0.0868267,32.8,95.231,0.025001,-0.469463,0.0841004,0.0546109,-0.00831545,0.00223131,0.00380216,0.0991638,0.0628935,0.408029,-10.1603,0.717685,-0.586368,0.0991638,0.0628935,10.2018
2598,156.229,84.4497,135.29,0.109072,-0.722822,-0.147599,-0.666218,-0.327714,0.068013,0.0115685,-0.412441,0.0512823,0.0868267,32.8,95.231,0.025001,-0.469463,0.0841004,0.0546109,-0.00831545,0.00223131,0.00380216,0.0991638,0.0628935,0.408029,-10.1603,0.717685,-0.586368,0.0991638,0.0628935,10.2018
2598.03,156.862,84.3563,135.465,0.111727,-0.722888,-0.150495,-0.665057,-0.308655,0.0818523,0.0177468,-0.305853,0.0041175,0.176677,32.81,95.235,0.024999,-0.451855,0.104495,0.0629732,-0.00788026,0.00256543,0.00365765,0.190107,0.0567066,0.292269,-10.0521,0.679616,-0.509874,0.190107,0.0567066,10.086
2598.05,156.862,84.3563,135.465,0.111727,-0.722888,-0.150495,-0.665057,-0.308655,0.0818523,0.0177468,-0.305853,0.0041175,0.176677,32.81,95.235,0.024999,-0.451855,0.104495,0.0629732,-0.00788026,0.00256543,0.00365765,0.190107,0.0567066,0.292269,-10.0521,0.679616,-0.509874,0.190107,0.0567066,10.086
2598.08,158.221,84.1187,135.961,0.116608,-0.723349,-0.156025,-0.662439,-0.293451,0.101282,0.02791,-0.287587,-0.15906,0.224046,32.8025,95.206,0.025,-0.415749,0.13397,0.0789339,-0.0078275,0.000202376,0.0052775,0.29364,-0.0727382,0.25824,-10.0298,0.538555,-0.497373,0.29364,-0.0727382,10.052
2598.1,158.221,84.1187,135.961,0.116608,-0.723349,-0.156025,-0.662439,-0.293451,0.101282,0.02791,-0.287587,-0.15906,0.224046,32.8025,95.206,0.025,-0.415749,0.13397,0.0789339,-0.0078275,0.000202376,0.0052775,0.29364,-0.0727382,0.25824,-10.0298,0.538555,-0.497373,0.29364,-0.0727382,10.052
2598.13,159.517,83.8347,136.442,0.121062,-0.724057,-0.161386,-0.659576,-0.276645,0.106466,0.043035,-0.313678,0.162638,0.325366,32.8025,95.198,0.024999,-0.394654,0.146595,0.096468,-0.00679434,0.00325806,0.0077453,0.266479,0.26561,0.298577,-10.0508,0.887439,-0.436876,0.266479,0.26561,10.0923
2598.16,160.074,83.6745,136.608,0.123093,-0.724486,-0.164045,-0.658071,-0.270612,0.112041,0.0483671,-0.249004,-0.139005,0.184492,32.805,95.181,0.025,-0.383008,0.152035,0.107467,-0.00703641,0.00106432,0.00648938,0.249064,-0.0629183,0.222196,-9.98313,0.602277,-0.599617,0.249064,-0.0629183,10.0159
2598.18,160.074,83.6745,136.608,0.123093,-0.724486,-0.164045,-0.658071,-0.270612,0.112041,0.0483671,-0.249004,-0.139005,0.184492,32.805,95.181,0.025,-0.383008,0.152035,0.107467,-0.00703641,0.00106432,0.00648938,0.249064,-0.0629183,0.222196,-9.98313,0.602277,-0.599617,0.249064,-0.0629183,10.0159
2598.21,161.135,83.3084,136.922,0.126808,-0.725587,-0.169282,-0.654818,-0.251535,0.127304,0.0653785,-0.277705,0.0479134,0.221127,32.81,95.173,0.025001,-0.35928,0.174748,0.129215,-0.00756226,0.00264364,0.0046769,0.211815,0.124208,0.260805,-10.0047,0.82735,-0.61245,0.211815,0.124208,10.0546
2598.23,161.135,83.3084,136.922,0.126808,-0.725587,-0.169282,-0.654818,-0.251535,0.127304,0.0653785,-0.277705,0.0479134,0.221127,32.81,95.173,0.025001,-0.35928,0.174748,0.129215,-0.00756226,0.00264364,0.0046769,0.211815,0.124208,0.260805,-10.0047,0.82735,-0.61245,0.211815,0.124208,10.0546
2598.26,162.069,82.8789,137.152,0.130041,-0.727002,-0.174471,-0.651243,-0.239641,0.141547,0.0810071,-0.288869,0.0405537,0.241982,32.805,95.161,0.025,-0.34193,0.193924,0.151416,-0.006928,0.000951509,0.00512033,0.235342,0.128061,0.268067,-10.0071,0.866207,-0.648133,0.235342,0.128061,10.0618
2598.28,162.069,82.8789,137.152,0.130041,-0.727002,-0.174471,-0.651243,-0.239641,0.141547,0.0810071,-0.288869,0.0405537,0.241982,32.805,95.161,0.025,-0.34193,0.193924,0.151416,-0.006928,0.000951509,0.00512033,0.235342,0.128061,0.268067,-10.0071,0.866207,-0.648133,0.235342,0.128061,10.0618
2598.31,162.849,82.4001,137.251,0.132903,-0.728627,-0.179694,-0.647418,-0.231437,0.147329,0.0961739,-0.252564,0.0252099,0.261842,32.8,95.132,0.025,-0.33103,0.205521,0.17311,-0.0068421,0.00223694,0.00678889,0.255698,0.126466,0.227179,-9.96028,0.904424,-0.689332,0.255698,0.126466,10.0209
2598.33,163.159,82.1471,137.228,0.134206,-0.729477,-0.182343,-0.645448,-0.22879,0.148679,0.101459,-0.306945,0.257796,0.294273,32.8025,95.136,0.025,-0.326332,0.207568,0.182401,-0.00661724,0.00252782,0.00712108,0.19169,0.348483,0.298471,-10.0088,1.16649,-0.688003,0.19169,0.348483,10.0922
2598.36,163.159,82.1471,137.228,0.134206,-0.729477,-0.182343,-0.645448,-0.22879,0.148679,0.101459,-0.306945,0.257796,0.294273,32.8025,95.136,0.025,-0.326332,0.207568,0.182401,-0.00661724,0.00252782,0.00712108,0.19169,0.348483,0.298471,-10.0088,1.16649,-0.688003,0.19169,0.348483,10.0922
2598.38,163.636,81.6235,137.047,0.136615,-0.731196,-0.187725,-0.641442,-0.225814,0.150008,0.107337,-0.245639,-0.00411609,0.292308,32.8,95.108,0.025,-0.320605,0.20907,0.194753,-0.00629945,-0.00181837,0.00615423,0.295352,0.117723,0.211444,-9.93491,0.96806,-0.751929,0.295352,0.117723,10.0052
2598.41,163.636,81.6235,137.047,0.136615,-0.731196,-0.187725,-0.641442,-0.225814,0.150008,0.107337,-0.245639,-0.00411609,0.292308,32.8,95.108,0.025,-0.320605,0.20907,0.194753,-0.00629945,-0.00181837,0.00615423,0.295352,0.117723,0.211444,-9.93491,0.96806,-0.751929,0.295352,0.117723,10.0052
2598.43,164.021,81.0947,136.794,0.13882,-0.732903,-0.193039,-0.637431,-0.218297,0.14496,0.110001,-0.213289,-0.0365773,0.357102,32.8075,95.095,0.024999,-0.309925,0.205456,0.203273,-0.00593661,-0.00143145,0.00767544,0.362706,0.122712,0.166547,-9.88898,1.00139,-0.747975,0.362706,0.122712,9.96029
2598.46,164.338,80.5643,136.482,0.140906,-0.734566,-0.198343,-0.633418,-0.218524,0.14612,0.112753,-0.28366,-0.0643174,0.219198,32.8,95.095,0.024999,-0.307956,0.20265,0.206154,-0.00561426,-0.0022379,0.00640194,0.26598,0.0337436,0.246502,-9.9449,1.04127,-0.945113,0.26598,0.0337436,10.0402
2598.49,164.338,80.5643,136.482,0.140906,-0.734566,-0.198343,-0.633418,-0.218524,0.14612,0.112753,-0.28366,-0.0643174,0.219198,32.8,95.095,0.024999,-0.307956,0.20265,0.206154,-0.00561426,-0.0022379,0.00640194,0.26598,0.0337436,0.246502,-9.9449,1.04127,-0.945113,0.26598,0.0337436,10.0402
2598.51,164.494,80.3018,136.324,0.141948,-0.735371,-0.20098,-0.631417,-0.218652,0.140594,0.111592,-0.18459,-0.181735,0.340353,32.8,95.095,0.025001,-0.307622,0.201485,0.202978,-0.0050219,-0.000989494,0.00902842,0.410679,-0.00642684,0.119341,-9.83837,0.957605,-0.852918,0.410679,-0.00642684,9.91309
2598.54,164.494,80.3018,136.324,0.141948,-0.735371,-0.20098,-0.631417,-0.218652,0.140594,0.111592,-0.18459,-0.181735,0.340353,32.8,95.095,0.025001,-0.307622,0.201485,0.202978,-0.0050219,-0.000989494,0.00902842,0.410679,-0.00642684,0.119341,-9.83837,0.957605,-0.852918,0.410679,-0.00642684,9.91309
2598.57,164.781,79.7902,135.98,0.144059,-0.736871,-0.206253,-0.627478,-0.222208,0.137262,0.112449,-0.235697,0.0864759,0.24769,32.8,95.071,0.025,-0.311237,0.191022,0.200205,-0.00545427,0.000843186,0.00790551,0.2139,0.18463,0.211045,-9.87436,1.29282,-1.00065,0.2139,0.18463,10.0048
2598.59,165.022,79.2883,135.584,0.146177,-0.73825,-0.211574,-0.623583,-0.219211,0.130276,0.107879,-0.179397,0.136858,0.423253,32.8,95.046,0.025001,-0.313572,0.188259,0.197529,-0.00443223,-0.00207521,0.00884859,0.330078,0.319521,0.137883,-9.80249,1.41085,-0.876971,0.330078,0.319521,9.93163
2598.62,165.022,79.2883,135.584,0.146177,-0.73825,-0.211574,-0.623583,-0.219211,0.130276,0.107879,-0.179397,0.136858,0.423253,32.8,95.046,0.025001,-0.313572,0.188259,0.197529,-0.00443223,-0.00207521,0.00884859,0.330078,0.319521,0.137883,-9.80249,1.41085,-0.876971,0.330078,0.319521,9.93163
2598.64,165.216,78.8181,135.129,0.148394,-0.739389,-0.216924,-0.61986,-0.229452,0.120278,0.104084,-0.10561,-0.281166,0.39847,32.805,95.046,0.025001,-0.321945,0.170265,0.192494,-0.00437362,-5.50E-05,0.00846275,0.496713,-0.0464208,0.0103741,-9.71344,1.05877,-0.947527,0.496713,-0.0464208,9.80412
2598.67,165.216,78.8181,135.129,0.148394,-0.739389,-0.216924,-0.61986,-0.229452,0.120278,0.104084,-0.10561,-0.281166,0.39847,32.805,95.046,0.025001,-0.321945,0.170265,0.192494,-0.00437362,-5.50E-05,0.00846275,0.496713,-0.0464208,0.0103741,-9.71344,1.05877,-0.947527,0.496713,-0.0464208,9.80412
2598.69,165.29,78.5959,134.871,0.149548,-0.739855,-0.219633,-0.618071,-0.233341,0.111708,0.103259,-0.206715,-0.0694619,0.309721,32.8025,95.034,0.024999,-0.326438,0.16044,0.187695,-0.00452245,-6.36E-05,0.00928288,0.336678,0.0878808,0.149694,-9.8071,1.30293,-1.0565,0.336678,0.0878808,9.94344
2598.72,165.401,78.1804,134.299,0.151997,-0.740557,-0.225133,-0.614645,-0.244345,0.10174,0.0948622,-0.161712,-0.145634,0.248763,32.8025,95.026,0.025001,-0.342112,0.141837,0.178401,-0.00408392,-0.00169519,0.00804786,0.314583,-0.00306119,0.101347,-9.74781,1.29012,-1.15227,0.314583,-0.00306119,9.89509
2598.74,165.401,78.1804,134.299,0.151997,-0.740557,-0.225133,-0.614645,-0.244345,0.10174,0.0948622,-0.161712,-0.145634,0.248763,32.8025,95.026,0.025001,-0.342112,0.141837,0.178401,-0.00408392,-0.00169519,0.00804786,0.314583,-0.00306119,0.101347,-9.74781,1.29012,-1.15227,0.314583,-0.00306119,9.89509
2598.77,165.477,77.8095,133.662,0.154684,-0.740923,-0.23074,-0.611445,-0.252566,0.0855435,0.0862378,-0.171905,-0.00500765,0.362483,32.8,95.009,0.025,-0.355295,0.122066,0.165093,-0.00388619,-0.00133799,0.00900975,0.34026,0.179171,0.114418,-9.74481,1.49109,-1.06533,0.34026,0.179171,9.90816
2598.79,165.477,77.8095,133.662,0.154684,-0.740923,-0.23074,-0.611445,-0.252566,0.0855435,0.0862378,-0.171905,-0.00500765,0.362483,32.8,95.009,0.025,-0.355295,0.122066,0.165093,-0.00388619,-0.00133799,0.00900975,0.34026,0.179171,0.114418,-9.74481,1.49109,-1.06533,0.34026,0.179171,9.90816
2598.82,165.502,77.6411,133.324,0.156089,-0.740988,-0.233552,-0.60994,-0.254851,0.0812478,0.0816021,-0.181304,-0.0310439,0.310663,32.81,95.013,0.024999,-0.358274,0.113259,0.159228,-0.00365436,-0.0016349,0.00812367,0.311758,0.13082,0.126646,-9.74809,1.49393,-1.12759,0.311758,0.13082,9.92039
2598.84,165.502,77.6411,133.324,0.156089,-0.740988,-0.233552,-0.60994,-0.254851,0.0812478,0.0816021,-0.181304,-0.0310439,0.310663,32.81,95.013,0.024999,-0.358274,0.113259,0.159228,-0.00365436,-0.0016349,0.00812367,0.311758,0.13082,0.126646,-9.74809,1.49393,-1.12759,0.311758,0.13082,9.92039
2598.87,165.524,77.3342,132.604,0.159037,-0.740891,-0.239232,-0.607088,-0.258927,0.0676454,0.0742265,-0.118407,0.0458626,0.349845,32.8,94.997,0.025001,-0.368999,0.0938106,0.148883,-0.00313185,-0.00088748,0.00864,0.289098,0.223374,0.0710013,-9.67383,1.62647,-1.1038,0.289098,0.223374,9.86475
2598.89,165.501,77.0654,131.821,0.162121,-0.740503,-0.244969,-0.604452,-0.271494,0.0566539,0.0676714,-0.162113,0.0421861,0.311299,32.8,94.985,0.025,-0.381706,0.0776087,0.140033,-0.0035868,-0.00132488,0.00822342,0.266457,0.199771,0.118573,-9.70736,1.6759,-1.15048,0.266457,0.199771,9.91232
2598.92,165.501,77.0654,131.821,0.162121,-0.740503,-0.244969,-0.604452,-0.271494,0.0566539,0.0676714,-0.162113,0.0421861,0.311299,32.8,94.985,0.025,-0.381706,0.0776087,0.140033,-0.0035868,-0.00132488,0.00822342,0.266457,0.199771,0.118573,-9.70736,1.6759,-1.15048,0.266457,0.199771,9.91232
2598.94,165.445,76.8267,130.981,0.165364,-0.739854,-0.250814,-0.601966,-0.273688,0.0475537,0.0616951,-0.123204,-0.0135578,0.384938,32.8,94.972,0.025001,-0.390047,0.0647387,0.132684,-0.00289818,-0.00103364,0.00807396,0.345535,0.201332,0.0600975,-9.65923,1.6714,-1.07882,0.345535,0.201332,9.85384
2598.97,165.445,76.8267,130.981,0.165364,-0.739854,-0.250814,-0.601966,-0.273688,0.0475537,0.0616951,-0.123204,-0.0135578,0.384938,32.8,94.972,0.025001,-0.390047,0.0647387,0.132684,-0.00289818,-0.00103364,0.00807396,0.345535,0.201332,0.0600975,-9.65923,1.6714,-1.07882,0.345535,0.201332,9.85384
2598.99,165.399,76.7182,130.544,0.166987,-0.739449,-0.253723,-0.600795,-0.274512,0.0419326,0.0611511,-0.060863,-0.0913002,0.276652,32.785,94.968,0.024999,-0.38854,0.0565306,0.129768,-0.002924,-0.000476378,0.00810021,0.28628,0.0813402,0.00198052,-9.59264,1.6185,-1.18595,0.28628,0.0813402,9.79573
2599.02,165.285,76.5167,129.65,0.170226,-0.738521,-0.259506,-0.598553,-0.273698,0.0332738,0.0575911,-0.146644,-0.00607798,0.319323,32.8,94.948,0.024999,-0.389846,0.0448518,0.12519,-0.00283521,-0.000323563,0.00776599,0.290584,0.173876,0.0940022,-9.67046,1.75213,-1.1378,0.290584,0.173876,9.88775
2599.05,165.285,76.5167,129.65,0.170226,-0.738521,-0.259506,-0.598553,-0.273698,0.0332738,0.0575911,-0.146644,-0.00607798,0.319323,32.8,94.948,0.024999,-0.389846,0.0448518,0.12519,-0.00283521,-0.000323563,0.00776599,0.290584,0.173876,0.0940022,-9.67046,1.75213,-1.1378,0.290584,0.173876,9.88775
2599.07,165.139,76.3368,128.719,0.173507,-0.737408,-0.265302,-0.596439,-0.27569,0.0265155,0.0540227,-0.0941475,0.0362244,0.27523,32.8,94.935,0.024999,-0.391666,0.0348574,0.120105,-0.00265278,-0.000720476,0.00741495,0.217525,0.187895,0.0574938,-9.61074,1.84121,-1.17181,0.217525,0.187895,9.85124
2599.1,165.139,76.3368,128.719,0.173507,-0.737408,-0.265302,-0.596439,-0.27569,0.0265155,0.0540227,-0.0941475,0.0362244,0.27523,32.8,94.935,0.024999,-0.391666,0.0348574,0.120105,-0.00265278,-0.000720476,0.00741495,0.217525,0.187895,0.0574938,-9.61074,1.84121,-1.17181,0.217525,0.187895,9.85124
2599.12,164.98,76.1691,127.776,0.176777,-0.736186,-0.271061,-0.594395,-0.275787,0.0227909,0.0528577,-0.107918,0.0161591,0.344281,32.8025,94.952,0.025,-0.389914,0.0292763,0.117676,-0.00287686,1.26E-05,0.00733513,0.283815,0.215843,0.0574261,-9.6177,1.86672,-1.08992,0.283815,0.215843,9.85117
2599.15,164.98,76.1691,127.776,0.176777,-0.736186,-0.271061,-0.594395,-0.275787,0.0227909,0.0528577,-0.107918,0.0161591,0.344281,32.8025,94.952,0.025,-0.389914,0.0292763,0.117676,-0.00287686,1.26E-05,0.00733513,0.283815,0.215843,0.0574261,-9.6177,1.86672,-1.08992,0.283815,0.215843,9.85117
2599.17,164.89,76.0894,127.292,0.178419,-0.735524,-0.273957,-0.593396,-0.278254,0.0194012,0.053157,-0.138298,-0.00927113,0.280059,32.8,94.923,0.025001,-0.392972,0.0253229,0.117049,-0.00274019,-0.000488689,0.00741962,0.254635,0.15621,0.091676,-9.64481,1.86386,-1.14648,0.254635,0.15621,9.88542
2599.2,164.694,75.9404,126.318,0.181647,-0.734128,-0.279666,-0.591479,-0.269506,0.0158679,0.0509539,-0.0781104,0.00548256,0.292614,32.8,94.923,0.025,-0.385351,0.017429,0.114079,-0.0025939,9.37E-05,0.00652638,0.239415,0.182285,0.0347426,-9.57847,1.92253,-1.1165,0.239415,0.182285,9.82849
2599.22,164.694,75.9404,126.318,0.181647,-0.734128,-0.279666,-0.591479,-0.269506,0.0158679,0.0509539,-0.0781104,0.00548256,0.292614,32.8,94.923,0.025,-0.385351,0.017429,0.114079,-0.0025939,9.37E-05,0.00652638,0.239415,0.182285,0.0347426,-9.57847,1.92253,-1.1165,0.239415,0.182285,9.82849
2599.25,164.48,75.7984,125.335,0.184813,-0.732659,-0.285316,-0.589618,-0.269072,0.0125904,0.0503017,-0.104814,0.137756,0.316027,32.8,94.911,0.025,-0.384283,0.0141214,0.113611,-0.00262618,0.000793143,0.00626212,0.180834,0.300035,0.0843407,-9.59925,2.09789,-1.07361,0.180834,0.300035,9.87809
2599.27,164.48,75.7984,125.335,0.184813,-0.732659,-0.285316,-0.589618,-0.269072,0.0125904,0.0503017,-0.104814,0.137756,0.316027,32.8,94.911,0.025,-0.384283,0.0141214,0.113611,-0.00262618,0.000793143,0.00626212,0.180834,0.300035,0.0843407,-9.59925,2.09789,-1.07361,0.180834,0.300035,9.87809
2599.3,164.231,75.6609,124.334,0.187843,-0.731134,-0.290883,-0.587831,-0.263166,0.00408146,0.0520377,-0.0711726,-0.0539956,0.362429,32.8,94.886,0.025,-0.373722,0.00495572,0.114861,-0.00167272,0.000329019,0.00863905,0.322185,0.18836,0.00728741,-9.55981,1.94892,-1.0056,0.322185,0.18836,9.80103
2599.32,164.091,75.5983,123.813,0.189378,-0.730301,-0.293694,-0.586975,-0.270432,0.00185455,0.0486501,-0.0255741,-0.0399804,0.307287,32.8,94.899,0.025,-0.381284,-0.000324421,0.111949,-0.0021108,-0.000796777,0.00702737,0.260227,0.168174,-0.0260223,-9.51156,1.98389,-1.04824,0.260227,0.168174,9.76772
2599.35,164.091,75.5983,123.813,0.189378,-0.730301,-0.293694,-0.586975,-0.270432,0.00185455,0.0486501,-0.0255741,-0.0399804,0.307287,32.8,94.899,0.025,-0.381284,-0.000324421,0.111949,-0.0021108,-0.000796777,0.00702737,0.260227,0.168174,-0.0260223,-9.51156,1.98389,-1.04824,0.260227,0.168174,9.76772
2599.37,163.813,75.4857,122.767,0.192517,-0.728531,-0.299307,-0.585316,-0.270691,-0.000830479,0.0438103,-0.136487,-0.0103957,0.315835,32.8025,94.886,0.025,-0.384474,-0.00588655,0.10502,-0.00228762,-0.000813622,0.00721556,0.272368,0.191619,0.0870995,-9.61767,2.05355,-1.01261,0.272368,0.191619,9.88085
2599.4,163.813,75.4857,122.767,0.192517,-0.728531,-0.299307,-0.585316,-0.270691,-0.000830479,0.0438103,-0.136487,-0.0103957,0.315835,32.8025,94.886,0.025,-0.384474,-0.00588655,0.10502,-0.00228762,-0.000813622,0.00721556,0.272368,0.191619,0.0870995,-9.61767,2.05355,-1.01261,0.272368,0.191619,9.88085
2599.42,163.536,75.3887,121.718,0.195729,-0.726637,-0.304889,-0.583723,-0.272443,-0.00582946,0.0398067,-0.0515355,-0.0304324,0.301724,32.8,94.886,0.024999,-0.386892,-0.0116327,0.0985291,-0.00166019,-0.000661502,0.00788705,0.2519,0.176507,0.00332352,-9.52855,2.07115,-0.997135,0.2519,0.176507,9.79707
2599.45,163.536,75.3887,121.718,0.195729,-0.726637,-0.304889,-0.583723,-0.272443,-0.00582946,0.0398067,-0.0515355,-0.0304324,0.301724,32.8,94.886,0.024999,-0.386892,-0.0116327,0.0985291,-0.00166019,-0.000661502,0.00788705,0.2519,0.176507,0.00332352,-9.52855,2.07115,-0.997135,0.2519,0.176507,9.79707
2599.47,163.402,75.3438,121.203,0.197321,-0.725675,-0.307625,-0.582946,-0.268656,-0.00606133,0.0384742,-0.0194491,0.00760578,0.29384,32.805,94.862,0.025,-0.381604,-0.0119891,0.0966778,-0.00164648,-0.000796732,0.00723141,0.212743,0.202959,-0.0180545,-9.49452,2.12714,-0.989929,0.212743,0.202959,9.77569
2599.5,163.141,75.2554,120.192,0.200447,-0.723753,-0.312999,-0.581407,-0.254877,-0.00451166,0.0409158,-0.128794,0.0639392,0.267757,32.8,94.862,0.025,-0.370249,-0.012916,0.0961977,-0.00168689,0.00107535,0.00691001,0.181291,0.220488,0.104347,-9.60003,2.21841,-0.985794,0.181291,0.220488,9.89809
2599.52,163.141,75.2554,120.192,0.200447,-0.723753,-0.312999,-0.581407,-0.254877,-0.00451166,0.0409158,-0.128794,0.0639392,0.267757,32.8,94.862,0.025,-0.370249,-0.012916,0.0961977,-0.00168689,0.00107535,0.00691001,0.181291,0.220488,0.104347,-9.60003,2.21841,-0.985794,0.181291,0.220488,9.89809
2599.55,162.908,75.1562,119.289,0.203149,-0.722076,-0.31787,-0.579909,-0.22946,0.000489706,0.0379569,-0.00242727,-0.0925927,0.251887,32.8,94.837,0.025,-0.327433,-0.00518763,0.0979175,-0.00170418,-0.00147833,0.00533142,0.240314,0.108557,-0.0499108,-9.46934,2.09568,-0.975544,0.240314,0.108557,9.74384
2599.58,162.908,75.1562,119.289,0.203149,-0.722076,-0.31787,-0.579909,-0.22946,0.000489706,0.0379569,-0.00242727,-0.0925927,0.251887,32.8,94.837,0.025,-0.327433,-0.00518763,0.0979175,-0.00170418,-0.00147833,0.00533142,0.240314,0.108557,-0.0499108,-9.46934,2.09568,-0.975544,0.240314,0.108557,9.74384
2599.6,162.738,75.0485,118.468,0.205775,-0.720519,-0.322557,-0.57833,-0.229511,0.00746071,0.0411197,-0.114554,0.0185952,0.101706,32.78,94.845,0.025,-0.325783,0.000645664,0.0992391,-0.0021074,-0.000981623,0.0057947,0.0870324,0.0758629,0.102385,-9.57673,2.23987,-1.10275,0.0870324,0.0758629,9.89613
2599.63,162.674,74.9867,118.077,0.207082,-0.719776,-0.32491,-0.577471,-0.229379,0.00923963,0.0429758,-0.101086,0.0547867,0.258423,32.8,94.825,0.025,-0.324837,0.00832953,0.102997,-0.00161039,-0.000194905,0.00699133,0.168158,0.2134,0.0786499,-9.56053,2.29321,-0.935647,0.168158,0.2134,9.8724
2599.65,162.674,74.9867,118.077,0.207082,-0.719776,-0.32491,-0.577471,-0.229379,0.00923963,0.0429758,-0.101086,0.0547867,0.258423,32.8,94.825,0.025,-0.324837,0.00832953,0.102997,-0.00161039,-0.000194905,0.00699133,0.168158,0.2134,0.0786499,-9.56053,2.29321,-0.935647,0.168158,0.2134,9.8724
2599.68,162.551,74.8458,117.315,0.20955,-0.71838,-0.329582,-0.575669,-0.219114,0.0155361,0.0506206,-0.0498426,0.0641985,0.0924955,32.8,94.837,0.024999,-0.31466,0.0143616,0.112611,-0.00168322,-7.89E-05,0.00628785,0.0324675,0.106822,0.0519247,-9.50302,2.33897,-1.08238,0.0324675,0.106822,9.84567
2599.7,162.551,74.8458,117.315,0.20955,-0.71838,-0.329582,-0.575669,-0.219114,0.0155361,0.0506206,-0.0498426,0.0641985,0.0924955,32.8,94.837,0.024999,-0.31466,0.0143616,0.112611,-0.00168322,-7.89E-05,0.00628785,0.0324675,0.106822,0.0519247,-9.50302,2.33897,-1.08238,0.0324675,0.106822,9.84567
2599.73,162.46,74.6744,116.613,0.211767,-0.717185,-0.334146,-0.573714,-0.20946,0.0226806,0.0631845,-0.108421,-0.000108362,0.218879,32.8025,94.808,0.024999,-0.299485,0.0230845,0.127169,-0.00195933,0.00127964,0.00588519,0.176541,0.14938,0.0786244,-9.5539,2.31416,-0.940689,0.176541,0.14938,9.87237
2599.75,162.46,74.6744,116.613,0.211767,-0.717185,-0.334146,-0.573714,-0.20946,0.0226806,0.0631845,-0.108421,-0.000108362,0.218879,32.8025,94.808,0.024999,-0.299485,0.0230845,0.127169,-0.00195933,0.00127964,0.00588519,0.176541,0.14938,0.0786244,-9.5539,2.31416,-0.940689,0.176541,0.14938,9.87237
2599.78,162.402,74.4715,115.974,0.21373,-0.716201,-0.338601,-0.571598,-0.200574,0.0281389,0.0707361,-0.0420015,0.0275168,0.299777,32.8,94.812,0.025,-0.284798,0.0352687,0.139094,-0.00126723,0.00150964,0.00595447,0.193699,0.233935,0.0119422,-9.47825,2.38465,-0.848537,0.193699,0.233935,9.80569
2599.8,162.378,74.3562,115.668,0.214604,-0.715783,-0.340815,-0.570477,-0.197374,0.0322185,0.075978,0.00649318,-0.0430401,0.234512,32.8,94.8,0.025,-0.278866,0.0386496,0.147632,-0.00167608,0.000832162,0.00535303,0.185506,0.143293,-0.0441048,-9.42446,2.33729,-0.909413,0.185506,0.143293,9.74964
2599.83,162.378,74.3562,115.668,0.214604,-0.715783,-0.340815,-0.570477,-0.197374,0.0322185,0.075978,0.00649318,-0.0430401,0.234512,32.8,94.8,0.025,-0.278866,0.0386496,0.147632,-0.00167608,0.000832162,0.00535303,0.185506,0.143293,-0.0441048,-9.42446,2.33729,-0.909413,0.185506,0.143293,9.74964
2599.85,162.37,74.0966,115.116,0.216165,-0.71514,-0.345177,-0.568066,-0.183698,0.0419524,0.0891062,-0.117382,0.111497,0.25088,32.8,94.8,0.024999,-0.263393,0.052223,0.163103,-0.00157113,0.00166989,0.00572309,0.118856,0.25024,0.111373,-9.53627,2.5414,-0.888197,0.118856,0.25024,9.90512
2599.88,162.37,74.0966,115.116,0.216165,-0.71514,-0.345177,-0.568066,-0.183698,0.0419524,0.0891062,-0.117382,0.111497,0.25088,32.8,94.8,0.024999,-0.263393,0.052223,0.163103,-0.00157113,0.00166989,0.00572309,0.118856,0.25024,0.111373,-9.53627,2.5414,-0.888197,0.118856,0.25024,9.90512
2599.9,162.398,73.7979,114.641,0.217381,-0.714782,-0.349383,-0.565477,-0.169111,0.0493807,0.0990273,-0.0210477,0.0399915,0.204424,32.8,94.8,0.025001,-0.241609,0.0639224,0.179038,-0.0012162,0.00124019,0.00545073,0.11157,0.177032,0.00657281,-9.42582,2.52386,-0.934925,0.11157,0.177032,9.80032
2599.93,162.464,73.4603,114.236,0.218292,-0.714688,-0.353476,-0.562694,-0.158426,0.0575764,0.108512,-0.0857578,0.00204402,0.181386,32.8,94.8,0.025001,-0.225929,0.0758654,0.194522,-0.00172243,0.000195653,0.00530006,0.139725,0.130188,0.061543,-9.47427,2.54437,-0.963123,0.139725,0.130188,9.85529
2599.96,162.464,73.4603,114.236,0.218292,-0.714688,-0.353476,-0.562694,-0.158426,0.0575764,0.108512,-0.0857578,0.00204402,0.181386,32.8,94.8,0.025001,-0.225929,0.0758654,0.194522,-0.00172243,0.000195653,0.00530006,0.139725,0.130188,0.061543,-9.47427,2.54437,-0.963123,0.139725,0.130188,9.85529
2599.98,162.513,73.2768,114.061,0.218646,-0.71474,-0.355488,-0.561221,-0.152757,0.0612125,0.114674,-0.111825,0.0650063,0.231743,32.785,94.784,0.025,-0.218612,0.0821879,0.202867,-0.00135223,0.00163067,0.00530952,0.134326,0.207329,0.0969874,-9.49135,2.63827,-0.917247,0.134326,0.207329,9.89073
2600.01,162.513,73.2768,114.061,0.218646,-0.71474,-0.355488,-0.561221,-0.152757,0.0612125,0.114674,-0.111825,0.0650063,0.231743,32.785,94.784,0.025,-0.218612,0.0821879,0.202867,-0.00135223,0.00163067,0.00530952,0.134326,0.207329,0.0969874,-9.49135,2.63827,-0.917247,0.134326,0.207329,9.89073
2600.03,162.647,72.8818,113.771,0.219149,-0.715049,-0.359414,-0.558122,-0.140054,0.0697753,0.124616,0.00748019,0.0376277,0.228887,32.8,94.788,0.025,-0.200922,0.0950391,0.217182,-0.00147275,0.00115808,0.00570709,0.117644,0.198588,-0.024169,-9.3524,2.6758,-0.93308,0.117644,0.198588,9.76958
2600.06,162.647,72.8818,113.771,0.219149,-0.715049,-0.359414,-0.558122,-0.140054,0.0697753,0.124616,0.00748019,0.0376277,0.228887,32.8,94.788,0.025,-0.200922,0.0950391,0.217182,-0.00147275,0.00115808,0.00570709,0.117644,0.198588,-0.024169,-9.3524,2.6758,-0.93308,0.117644,0.198588,9.76958
2600.08,162.81,72.4465,113.546,0.219319,-0.715641,-0.363209,-0.554831,-0.128097,0.0779632,0.137867,-0.103779,0.0464211,0.244386,32.8,94.776,0.024999,-0.182242,0.106637,0.234936,-0.00147228,0.000519308,0.00538719,0.151757,0.206979,0.0823367,-9.44149,2.75424,-0.935612,0.151757,0.206979,9.87608
2600.11,162.905,72.2144,113.457,0.219304,-0.716031,-0.365075,-0.553105,-0.122049,0.0836662,0.142525,-0.0940667,0.0937516,0.247445,32.81,94.78,0.025,-0.175463,0.112951,0.242528,-0.00118658,0.00104309,0.00569015,0.116533,0.240693,0.0857544,-9.41973,2.83809,-0.94338,0.116533,0.240693,9.8795
2600.13,162.905,72.2144,113.457,0.219304,-0.716031,-0.365075,-0.553105,-0.122049,0.0836662,0.142525,-0.0940667,0.0937516,0.247445,32.81,94.78,0.025,-0.175463,0.112951,0.242528,-0.00118658,0.00104309,0.00569015,0.116533,0.240693,0.0857544,-9.41973,2.83809,-0.94338,0.116533,0.240693,9.8795
2600.16,163.107,71.7227,113.317,0.219044,-0.716999,-0.36872,-0.549526,-0.109942,0.0917018,0.152785,-0.030228,0.0161614,0.226858,32.8,94.776,0.025,-0.157722,0.123328,0.257986,-0.0015404,0.000367821,0.00530036,0.139569,0.182025,0.00519665,-9.32988,2.83679,-0.98888,0.139569,0.182025,9.79894
2600.18,163.107,71.7227,113.317,0.219044,-0.716999,-0.36872,-0.549526,-0.109942,0.0917018,0.152785,-0.030228,0.0161614,0.226858,32.8,94.776,0.025,-0.157722,0.123328,0.257986,-0.0015404,0.000367821,0.00530036,0.139569,0.182025,0.00519665,-9.32988,2.83679,-0.98888,0.139569,0.182025,9.79894
2600.21,163.333,71.1952,113.242,0.218461,-0.718245,-0.372191,-0.545777,-0.0943122,0.0995502,0.163284,-0.100162,0.0315718,0.211396,32.8,94.763,0.025001,-0.135344,0.133769,0.273294,-0.00117513,0.000443304,0.00535802,0.139554,0.173984,0.0772768,-9.37114,2.93235,-1.03439,0.139554,0.173984,9.87102
2600.23,163.583,70.6305,113.228,0.217567,-0.719768,-0.375503,-0.541845,-0.0850088,0.106629,0.175251,0.00884463,-0.0109128,0.236136,32.8,94.751,0.025001,-0.117923,0.145327,0.288559,-0.00089905,0.000688346,0.00564832,0.150649,0.177345,-0.0425574,-9.23057,2.97398,-1.04492,0.150649,0.177345,9.75119
2600.26,163.583,70.6305,113.228,0.217567,-0.719768,-0.375503,-0.541845,-0.0850088,0.106629,0.175251,0.00884463,-0.0109128,0.236136,32.8,94.751,0.025001,-0.117923,0.145327,0.288559,-0.00089905,0.000688346,0.00564832,0.150649,0.177345,-0.0425574,-9.23057,2.97398,-1.04492,0.150649,0.177345,9.75119
2600.28,163.715,70.3339,113.236,0.217032,-0.720612,-0.377143,-0.539795,-0.0797983,0.110805,0.181615,-0.0102653,0.0216433,0.20451,32.8,94.763,0.025,-0.113266,0.151157,0.296021,-0.00146579,0.000169585,0.0054491,0.113357,0.171558,-0.0107929,-9.23274,3.05028,-1.09579,0.113357,0.171558,9.78295
2600.31,163.715,70.3339,113.236,0.217032,-0.720612,-0.377143,-0.539795,-0.0797983,0.110805,0.181615,-0.0102653,0.0216433,0.20451,32.8,94.763,0.025,-0.113266,0.151157,0.296021,-0.00146579,0.000169585,0.0054491,0.113357,0.171558,-0.0107929,-9.23274,3.05028,-1.09579,0.113357,0.171558,9.78295
2600.33,163.995,69.7105,113.284,0.215774,-0.72248,-0.380373,-0.535519,-0.0728039,0.118061,0.191022,-0.124598,-0.00825124,0.212354,32.8,94.751,0.024999,-0.100012,0.163349,0.312863,-0.00146479,-5.47E-05,0.00541714,0.176928,0.148782,0.0851313,-9.31067,3.11127,-1.1301,0.176928,0.148782,9.87888
2600.36,163.995,69.7105,113.284,0.215774,-0.72248,-0.380373,-0.535519,-0.0728039,0.118061,0.191022,-0.124598,-0.00825124,0.212354,32.8,94.751,0.024999,-0.100012,0.163349,0.312863,-0.00146479,-5.47E-05,0.00541714,0.176928,0.148782,0.0851313,-9.31067,3.11127,-1.1301,0.176928,0.148782,9.87888
2600.39,164.286,69.0503,113.358,0.214308,-0.724535,-0.38359,-0.531018,-0.0659187,0.126649,0.202555,-0.0101103,0.0158395,0.24908,32.8,94.751,0.024999,-0.0936929,0.174124,0.327393,-0.00163942,0.000603241,0.00517026,0.142819,0.203886,-0.0206681,-9.15644,3.2306,-1.13927,0.142819,0.203886,9.77308
2600.41,164.591,68.3483,113.466,0.212599,-0.726817,-0.386765,-0.526262,-0.0591284,0.135741,0.21443,-0.11486,0.0454271,0.202389,32.8075,94.751,0.024999,-0.082161,0.187076,0.344758,-0.00182838,0.00036038,0.00541896,0.129867,0.175543,0.0923947,-9.2176,3.36011,-1.23654,0.129867,0.175543,9.88614
2600.44,164.591,68.3483,113.466,0.212599,-0.726817,-0.386765,-0.526262,-0.0591284,0.135741,0.21443,-0.11486,0.0454271,0.202389,32.8075,94.751,0.024999,-0.082161,0.187076,0.344758,-0.00182838,0.00036038,0.00541896,0.129867,0.175543,0.0923947,-9.2176,3.36011,-1.23654,0.129867,0.175543,9.88614
2600.46,164.748,67.9802,113.53,0.211658,-0.72804,-0.388353,-0.523775,-0.0595016,0.141037,0.221347,-0.0937201,0.0113149,0.196724,32.8,94.751,0.025001,-0.0787179,0.193556,0.35517,-0.00158951,0.000611682,0.00498721,0.143503,0.152505,0.061327,-9.17306,3.37792,-1.26923,0.143503,0.152505,9.85507
2600.49,164.748,67.9802,113.53,0.211658,-0.72804,-0.388353,-0.523775,-0.0595016,0.141037,0.221347,-0.0937201,0.0113149,0.196724,32.8,94.751,0.025001,-0.0787179,0.193556,0.35517,-0.00158951,0.000611682,0.00498721,0.143503,0.152505,0.061327,-9.17306,3.37792,-1.26923,0.143503,0.152505,9.85507
2600.51,165.084,67.2106,113.672,0.209714,-0.730602,-0.391622,-0.51853,-0.0643099,0.151036,0.234449,-0.0199188,0.0178179,0.178782,32.8,94.751,0.025,-0.0834436,0.209155,0.371874,-0.00180493,0.000119902,0.00517541,0.100852,0.149988,-0.00311883,-9.04912,3.49219,-1.34431,0.100852,0.149988,9.79063
2600.54,165.436,66.3928,113.796,0.207746,-0.733234,-0.395179,-0.512878,-0.0766905,0.162336,0.247368,-0.118791,0.00534924,0.223384,32.8,94.751,0.025001,-0.101528,0.224464,0.391135,-0.001905,-0.000615567,0.00447774,0.173578,0.168311,0.074715,-9.09292,3.59398,-1.35909,0.173578,0.168311,9.86846
2600.56,165.436,66.3928,113.796,0.207746,-0.733234,-0.395179,-0.512878,-0.0766905,0.162336,0.247368,-0.118791,0.00534924,0.223384,32.8,94.751,0.025001,-0.101528,0.224464,0.391135,-0.001905,-0.000615567,0.00447774,0.173578,0.168311,0.074715,-9.09292,3.59398,-1.35909,0.173578,0.168311,9.86846
2600.59,165.8,65.5296,113.894,0.205793,-0.735894,-0.399053,-0.506819,-0.0864313,0.172012,0.260076,-0.0357659,-0.0232043,0.209503,32.8,94.739,0.025001,-0.11812,0.23748,0.409504,-0.00195674,-0.000483277,0.0048501,0.152641,0.149265,-0.0113856,-8.94979,3.6859,-1.43372,0.152641,0.149265,9.78236
2600.61,165.8,65.5296,113.894,0.205793,-0.735894,-0.399053,-0.506819,-0.0864313,0.172012,0.260076,-0.0357659,-0.0232043,0.209503,32.8,94.739,0.025001,-0.11812,0.23748,0.409504,-0.00195674,-0.000483277,0.0048501,0.152641,0.149265,-0.0113856,-8.94979,3.6859,-1.43372,0.152641,0.149265,9.78236
2600.64,165.986,65.0823,113.935,0.204814,-0.737235,-0.401089,-0.50365,-0.0925847,0.175144,0.264713,-0.0528113,-0.00936642,0.177231,32.8,94.739,0.024999,-0.125399,0.244301,0.417392,-0.00218789,-0.000618271,0.00535149,0.130697,0.130423,0.0139944,-8.9349,3.76205,-1.49681,0.130697,0.130423,9.80774
2600.66,165.986,65.0823,113.935,0.204814,-0.737235,-0.401089,-0.50365,-0.0925847,0.175144,0.264713,-0.0528113,-0.00936642,0.177231,32.8,94.739,0.024999,-0.125399,0.244301,0.417392,-0.00218789,-0.000618271,0.00535149,0.130697,0.130423,0.0139944,-8.9349,3.76205,-1.49681,0.130697,0.130423,9.80774
2600.69,166.351,64.1558,113.982,0.202827,-0.739901,-0.405406,-0.497045,-0.10662,0.183125,0.277719,-0.132856,-0.056164,0.189593,32.8,94.739,0.025,-0.145424,0.254612,0.436046,-0.00220256,-0.0012714,0.00493841,0.204043,0.10522,0.063606,-8.94706,3.84461,-1.5457,0.204043,0.10522,9.85735
2600.71,166.712,63.1894,113.986,0.200834,-0.742524,-0.41005,-0.490084,-0.115673,0.189575,0.291001,-0.0514589,-0.0295598,0.225264,32.8,94.726,0.024999,-0.160731,0.264089,0.453619,-0.0024765,-0.000369266,0.00582627,0.170131,0.158947,-0.00755705,-8.7924,4.00638,-1.57045,0.170131,0.158947,9.78619
2600.74,166.712,63.1894,113.986,0.200834,-0.742524,-0.41005,-0.490084,-0.115673,0.189575,0.291001,-0.0514589,-0.0295598,0.225264,32.8,94.726,0.024999,-0.160731,0.264089,0.453619,-0.0024765,-0.000369266,0.00582627,0.170131,0.158947,-0.00755705,-8.7924,4.00638,-1.57045,0.170131,0.158947,9.78619
2600.77,167.068,62.1827,113.982,0.198663,-0.745231,-0.414777,-0.48283,-0.109923,0.195915,0.30398,-0.178818,-0.00698844,0.247126,32.8,94.726,0.025,-0.155836,0.27416,0.471349,-0.00294816,-0.000698344,0.00600634,0.223312,0.177477,0.108302,-8.8408,4.16876,-1.61046,0.223312,0.177477,9.90205
2600.79,167.068,62.1827,113.982,0.198663,-0.745231,-0.414777,-0.48283,-0.109923,0.195915,0.30398,-0.178818,-0.00698844,0.247126,32.8,94.726,0.025,-0.155836,0.27416,0.471349,-0.00294816,-0.000698344,0.00600634,0.223312,0.177477,0.108302,-8.8408,4.16876,-1.61046,0.223312,0.177477,9.90205
2600.82,167.244,61.6645,113.986,0.197474,-0.746644,-0.417112,-0.479108,-0.104461,0.198914,0.308832,-0.149338,-0.0786179,0.244236,32.78,94.722,0.025,-0.148491,0.278551,0.47954,-0.00252412,-0.00129684,0.00600748,0.25824,0.137561,0.050228,-8.76963,4.1684,-1.64544,0.25824,0.137561,9.84397
2600.84,167.656,60.7421,113.965,0.196123,-0.748861,-0.421816,-0.472032,-0.194024,0.246539,0.261089,40.0252,-4.13281,-2.2482,32.79,94.714,0.025,-0.21344,0.342837,0.372674,2.91266,-0.000207589,-0.0801343,-17.4675,0.00120234,-36.3186,31.4809,0.241182,-4.19239,-17.4675,0.00120234,-26.5249
2600.87,167.656,60.7421,113.965,0.196123,-0.748861,-0.421816,-0.472032,-0.194024,0.246539,0.261089,40.0252,-4.13281,-2.2482,32.79,94.714,0.025,-0.21344,0.342837,0.372674,2.91266,-0.000207589,-0.0801343,-17.4675,0.00120234,-36.3186,31.4809,0.241182,-4.19239,-17.4675,0.00120234,-26.5249
2600.89,167.941,60.4838,113.661,0.19807,-0.748084,-0.425757,-0.468903,-0.184519,0.055423,0.00772981,-1.03215,-0.963753,0.297201,32.8,94.714,0.025001,-0.250448,0.0655963,0.0760718,-0.0277985,-0.0161465,-0.0010361,1.32607,-0.400453,0.404533,-9.55483,3.4557,-1.63924,1.32607,-0.400453,10.1983
2600.92,167.941,60.4838,113.661,0.19807,-0.748084,-0.425757,-0.468903,-0.184519,0.055423,0.00772981,-1.03215,-0.963753,0.297201,32.8,94.714,0.025001,-0.250448,0.0655963,0.0760718,-0.0277985,-0.0161465,-0.0010361,1.32607,-0.400453,0.404533,-9.55483,3.4557,-1.63924,1.32607,-0.400453,10.1983
2600.94,168.102,60.4471,113.528,0.199502,-0.747427,-0.427397,-0.46785,-0.192103,0.0668323,0.00149376,-0.173668,-0.252297,0.371442,32.78,94.722,0.024999,-0.269346,0.0828803,0.0428091,-0.00775013,-0.00641539,0.00759397,0.456388,0.148951,-0.0361554,-8.69325,4.17666,-1.5569,0.456388,0.148951,9.75759
2600.97,168.102,60.4471,113.528,0.199502,-0.747427,-0.427397,-0.46785,-0.192103,0.0668323,0.00149376,-0.173668,-0.252297,0.371442,32.78,94.722,0.024999,-0.269346,0.0828803,0.0428091,-0.00775013,-0.00641539,0.00759397,0.456388,0.148951,-0.0361554,-8.69325,4.17666,-1.5569,0.456388,0.148951,9.75759
2600.99,168.467,60.3877,113.286,0.202603,-0.746071,-0.430645,-0.465699,-0.195138,0.0644968,-0.0117353,0.0112947,-0.334767,0.407888,32.8,94.726,0.025001,-0.276383,0.0892144,0.02739,-0.000272629,-0.00809244,0.0100668,0.442272,0.157072,-0.24144,-8.50328,4.1104,-1.50522,0.442272,0.157072,9.55231
2601.02,168.857,60.3603,113.083,0.205839,-0.7447,-0.433628,-0.463702,-0.183425,0.0705493,-0.023868,-0.0347812,-0.321329,0.397856,32.8,94.714,0.025,-0.259633,0.0936425,0.0120657,-0.000100768,-0.00842442,0.00722523,0.448361,0.15632,-0.1931,-8.54704,4.13433,-1.5011,0.448361,0.15632,9.60065
2601.04,168.857,60.3603,113.083,0.205839,-0.7447,-0.433628,-0.463702,-0.183425,0.0705493,-0.023868,-0.0347812,-0.321329,0.397856,32.8,94.714,0.025,-0.259633,0.0936425,0.0120657,-0.000100768,-0.00842442,0.00722523,0.448361,0.15632,-0.1931,-8.54704,4.13433,-1.5011,0.448361,0.15632,9.60065
2601.07,169.252,60.3616,112.904,0.209129,-0.743302,-0.436379,-0.461888,-0.181766,0.0565736,-0.0284441,0.0884549,-0.336332,0.430563,32.795,94.714,0.024999,-0.25638,0.0793953,0.000692541,0.00030345,-0.00775927,0.0107519,0.414226,0.191833,-0.312961,-8.42391,4.12506,-1.45439,0.414226,0.191833,9.48079
2601.09,169.252,60.3616,112.904,0.209129,-0.743302,-0.436379,-0.461888,-0.181766,0.0565736,-0.0284441,0.0884549,-0.336332,0.430563,32.795,94.714,0.024999,-0.25638,0.0793953,0.000692541,0.00030345,-0.00775927,0.0107519,0.414226,0.191833,-0.312961,-8.42391,4.12506,-1.45439,0.414226,0.191833,9.48079
2601.12,169.428,60.3661,112.799,0.210715,-0.742563,-0.437758,-0.461051,-0.181052,0.0534321,-0.0249965,-0.0847251,-0.262869,0.40746,32.8,94.702,0.025001,-0.254219,0.0738129,0.00303109,-0.000900953,-0.00722647,0.00983294,0.433378,0.197606,-0.124248,-8.59748,4.20136,-1.46902,0.433378,0.197606,9.6695
2601.15,169.702,60.3697,112.517,0.213639,-0.740963,-0.440673,-0.459499,-0.183826,0.0310066,-0.0131285,-0.10585,-0.303422,0.52074,32.79,94.702,0.025001,-0.257837,0.0482863,0.0182163,-0.00107915,-0.00773615,0.0122325,0.526976,0.275071,-0.145162,-8.61891,4.16949,-1.33356,0.526976,0.275071,9.64858
2601.17,169.702,60.3697,112.517,0.213639,-0.740963,-0.440673,-0.459499,-0.183826,0.0310066,-0.0131285,-0.10585,-0.303422,0.52074,32.79,94.702,0.025001,-0.257837,0.0482863,0.0182163,-0.00107915,-0.00773615,0.0122325,0.526976,0.275071,-0.145162,-8.61891,4.16949,-1.33356,0.526976,0.275071,9.64858
2601.2,169.803,60.3896,112.076,0.216146,-0.739008,-0.443863,-0.458403,-0.18453,0.000237552,-0.012391,0.0847308,-0.35437,0.46256,32.8,94.702,0.025,-0.260548,0.00335211,0.0230807,0.000558916,-0.00876784,0.0121085,0.440853,0.220904,-0.321821,-8.43001,4.12993,-1.35617,0.440853,0.220904,9.47192
2601.22,169.803,60.3896,112.076,0.216146,-0.739008,-0.443863,-0.458403,-0.18453,0.000237552,-0.012391,0.0847308,-0.35437,0.46256,32.8,94.702,0.025,-0.260548,0.00335211,0.0230807,0.000558916,-0.00876784,0.0121085,0.440853,0.220904,-0.321821,-8.43001,4.12993,-1.35617,0.440853,0.220904,9.47192
